ParticipantPrivateID,randomiser_475f,Manipulation_ResponseButtonOrder,Manipulation_Sources,Manipulation_Trials_perBlock_,Manipulation_Blocks,Manipulation_MinimumSamples,Manipulation_MaximumSamples,RT,Stimulus,Response,NoOfStimuli,CorrectResponse,TrialType,TrialIndex,Accuracy,Block,TrialNumber,Sample_Reliability,Sample_Color,Sample_NumColor,Prior_Belief,Awareness
14064208,Button0Blue,0,"{""Source1"": 0.50, ""Source2"": 0.55, ""Source3"": 0.65}",40,6,6,6,11826.3999999985,blue,0,6,0,js-scroll-button-response,3,1,1,1,55           55           55           50           65           50,blueredblueredbluered,1  0  1  0  1  0,1,1
14064208,Button0Blue,0,"{""Source1"": 0.50, ""Source2"": 0.55, ""Source3"": 0.65}",40,6,6,6,10745.5,blue,1,6,0,js-scroll-button-response,5,0,1,2,55           50           65           65           50           65,redblueredredbluered,0  1  0  0  1  0,1,1
14064208,Button0Blue,0,"{""Source1"": 0.50, ""Source2"": 0.55, ""Source3"": 0.65}",40,6,6,6,7724.70000000298,red,1,6,1,js-scroll-button-response,7,1,1,3,50           50           55           50           55           65,blueblueredredredred,1  1  0  0  0  0,1,1
14064208,Button0Blue,0,"{""Source1"": 0.50, ""Source2"": 0.55, ""Source3"": 0.65}",40,6,6,6,13318.5,red,0,6,1,js-scroll-button-response,9,0,1,4,65           50           65           50           55           50,redblueblueredredred,0  1  1  0  0  0,1,1
14064208,Button0Blue,0,"{""Source1"": 0.50, ""Source2"": 0.55, ""Source3"": 0.65}",40,6,6,6,8653.70000000298,red,1,6,1,js-scroll-button-response,11,1,1,5,50           65           55           55           65           55,blueblueblueredredred,1  1  1  0  0  0,1,1
14064208,Button0Blue,0,"{""Source1"": 0.50, ""Source2"": 0.55, ""Source3"": 0.65}",40,6,6,6,7453.10000000149,blue,0,6,0,js-scroll-button-response,13,1,1,6,50           65           50           55           55           55,blueblueredredblueblue,1  1  0  0  1  1,1,1
14064208,Button0Blue,0,"{""Source1"": 0.50, ""Source2"": 0.55, ""Source3"": 0.65}",40,6,6,6,9936.69999999553,blue,0,6,0,js-scroll-button-response,15,1,1,7,55           65           55           50           55           65,blueredredredblueblue,1  0  0  0  1  1,1,1
14064208,Button0Blue,0,"{""Source1"": 0.50, ""Source2"": 0.55, ""Source3"": 0.65}",40,6,6,6,7881.39999999851,red,1,6,1,js-scroll-button-response,17,1,1,8,55           55           50           50           55           65,redredblueredredred,0  0  1  0  0  0,1,1
14064208,Button0Blue,0,"{""Source1"": 0.50, ""Source2"": 0.55, ""Source3"": 0.65}",40,6,6,6,9726,blue,0,6,0,js-scroll-button-response,19,1,1,9,50           55           65           55           50           65,redblueblueredredblue,0  1  1  0  0  1,1,1
14064208,Button0Blue,0,"{""Source1"": 0.50, ""Source2"": 0.55, ""Source3"": 0.65}",40,6,6,6,6389.89999999851,red,1,6,1,js-scroll-button-response,21,1,1,10,65           55           55           55           65           50,redredredredredred,0  0  0  0  0  0,1,1
14064208,Button0Blue,0,"{""Source1"": 0.50, ""Source2"": 0.55, ""Source3"": 0.65}",40,6,6,6,6959,red,1,6,1,js-scroll-button-response,23,1,1,11,55           55           65           50           50           50,blueredredblueredblue,1  0  0  1  0  1,1,1
14064208,Button0Blue,0,"{""Source1"": 0.50, ""Source2"": 0.55, ""Source3"": 0.65}",40,6,6,6,10663.6000000015,blue,0,6,0,js-scroll-button-response,25,1,1,12,55           55           55           50           65           50,blueredredredbluered,1  0  0  0  1  0,1,1
14064208,Button0Blue,0,"{""Source1"": 0.50, ""Source2"": 0.55, ""Source3"": 0.65}",40,6,6,6,6208.89999999851,red,1,6,1,js-scroll-button-response,27,1,1,13,65           55           50           55           55           65,redredredredredred,0  0  0  0  0  0,1,1
14064208,Button0Blue,0,"{""Source1"": 0.50, ""Source2"": 0.55, ""Source3"": 0.65}",40,6,6,6,7865.20000000298,blue,1,6,0,js-scroll-button-response,29,0,1,14,65           65           65           50           55           65,blueblueredredredred,1  1  0  0  0  0,1,1
14064208,Button0Blue,0,"{""Source1"": 0.50, ""Source2"": 0.55, ""Source3"": 0.65}",40,6,6,6,8518.90000000596,blue,1,6,0,js-scroll-button-response,31,0,1,15,50           65           65           55           50           65,redblueredblueredred,0  1  0  1  0  0,1,1
14064208,Button0Blue,0,"{""Source1"": 0.50, ""Source2"": 0.55, ""Source3"": 0.65}",40,6,6,6,8953.70000000298,blue,0,6,0,js-scroll-button-response,33,1,1,16,55           55           65           65           50           65,redredblueblueredblue,0  0  1  1  0  1,1,1
14064208,Button0Blue,0,"{""Source1"": 0.50, ""Source2"": 0.55, ""Source3"": 0.65}",40,6,6,6,6568.60000000149,blue,0,6,0,js-scroll-button-response,35,1,1,17,55           55           65           50           55           50,redblueblueredredred,0  1  1  0  0  0,1,1
14064208,Button0Blue,0,"{""Source1"": 0.50, ""Source2"": 0.55, ""Source3"": 0.65}",40,6,6,6,8481.60000000149,blue,1,6,0,js-scroll-button-response,37,0,1,18,55           50           50           55           55           65,redblueredredredblue,0  1  0  0  0  1,1,1
14064208,Button0Blue,0,"{""Source1"": 0.50, ""Source2"": 0.55, ""Source3"": 0.65}",40,6,6,6,6965.80000000447,blue,1,6,0,js-scroll-button-response,39,0,1,19,55           55           55           55           65           50,redblueblueblueredblue,0  1  1  1  0  1,1,1
14064208,Button0Blue,0,"{""Source1"": 0.50, ""Source2"": 0.55, ""Source3"": 0.65}",40,6,6,6,7198,blue,0,6,0,js-scroll-button-response,41,1,1,20,50           55           65           55           65           65,blueredblueredredblue,1  0  1  0  0  1,1,1
14064208,Button0Blue,0,"{""Source1"": 0.50, ""Source2"": 0.55, ""Source3"": 0.65}",40,6,6,6,5211.39999999851,blue,0,6,0,js-scroll-button-response,43,1,1,21,65           65           65           50           50           55,blueblueblueredredred,1  1  1  0  0  0,1,1
14064208,Button0Blue,0,"{""Source1"": 0.50, ""Source2"": 0.55, ""Source3"": 0.65}",40,6,6,6,5954.60000000149,blue,0,6,0,js-scroll-button-response,45,1,1,22,50           55           55           65           50           55,redblueblueblueredblue,0  1  1  1  0  1,1,1
14064208,Button0Blue,0,"{""Source1"": 0.50, ""Source2"": 0.55, ""Source3"": 0.65}",40,6,6,6,8969.70000000298,blue,1,6,0,js-scroll-button-response,47,0,1,23,55           65           55           50           55           55,redredredredredblue,0  0  0  0  0  1,1,1
14064208,Button0Blue,0,"{""Source1"": 0.50, ""Source2"": 0.55, ""Source3"": 0.65}",40,6,6,6,12726,blue,1,6,0,js-scroll-button-response,49,0,1,24,55           55           65           55           55           50,blueredredblueblueblue,1  0  0  1  1  1,1,1
14064208,Button0Blue,0,"{""Source1"": 0.50, ""Source2"": 0.55, ""Source3"": 0.65}",40,6,6,6,8961.70000000298,blue,1,6,0,js-scroll-button-response,51,0,1,25,55           55           65           55           55           50,redredredredblueblue,0  0  0  0  1  1,1,1
14064208,Button0Blue,0,"{""Source1"": 0.50, ""Source2"": 0.55, ""Source3"": 0.65}",40,6,6,6,8475,blue,0,6,0,js-scroll-button-response,53,1,1,26,55           65           55           55           50           65,redblueredredredblue,0  1  0  0  0  1,1,1
14064208,Button0Blue,0,"{""Source1"": 0.50, ""Source2"": 0.55, ""Source3"": 0.65}",40,6,6,6,7138.89999999851,red,0,6,1,js-scroll-button-response,55,0,1,27,50           50           50           50           65           55,blueblueredblueblueblue,1  1  0  1  1  1,1,1
14064208,Button0Blue,0,"{""Source1"": 0.50, ""Source2"": 0.55, ""Source3"": 0.65}",40,6,6,6,7888.79999999702,red,1,6,1,js-scroll-button-response,57,1,1,28,55           65           65           55           50           50,redredredredbluered,0  0  0  0  1  0,1,1
14064208,Button0Blue,0,"{""Source1"": 0.50, ""Source2"": 0.55, ""Source3"": 0.65}",40,6,6,6,8061.69999999553,blue,1,6,0,js-scroll-button-response,59,0,1,29,65           55           65           55           50           65,redredbluebluebluered,0  0  1  1  1  0,1,1
14064208,Button0Blue,0,"{""Source1"": 0.50, ""Source2"": 0.55, ""Source3"": 0.65}",40,6,6,6,11053.6000000015,blue,0,6,0,js-scroll-button-response,61,1,1,30,50           50           65           55           50           65,blueredblueredblueblue,1  0  1  0  1  1,1,1
14064208,Button0Blue,0,"{""Source1"": 0.50, ""Source2"": 0.55, ""Source3"": 0.65}",40,6,6,6,9172.10000000149,red,1,6,1,js-scroll-button-response,63,1,1,31,55           55           55           65           50           50,redblueredredbluered,0  1  0  0  1  0,1,1
14064208,Button0Blue,0,"{""Source1"": 0.50, ""Source2"": 0.55, ""Source3"": 0.65}",40,6,6,6,7648.80000000447,blue,0,6,0,js-scroll-button-response,65,1,1,32,55           55           55           55           65           65,blueredblueredredblue,1  0  1  0  0  1,1,1
14064208,Button0Blue,0,"{""Source1"": 0.50, ""Source2"": 0.55, ""Source3"": 0.65}",40,6,6,6,8383.60000000149,red,1,6,1,js-scroll-button-response,67,1,1,33,65           65           65           50           55           50,redredblueredredblue,0  0  1  0  0  1,1,1
14064208,Button0Blue,0,"{""Source1"": 0.50, ""Source2"": 0.55, ""Source3"": 0.65}",40,6,6,6,7445.79999999702,blue,0,6,0,js-scroll-button-response,69,1,1,34,50           55           65           65           65           55,blueblueblueblueredblue,1  1  1  1  0  1,1,1
14064208,Button0Blue,0,"{""Source1"": 0.50, ""Source2"": 0.55, ""Source3"": 0.65}",40,6,6,6,7611.60000000149,red,0,6,1,js-scroll-button-response,71,0,1,35,55           55           50           55           65           55,blueredredredblueblue,1  0  0  0  1  1,1,1
14064208,Button0Blue,0,"{""Source1"": 0.50, ""Source2"": 0.55, ""Source3"": 0.65}",40,6,6,6,9073.89999999851,blue,0,6,0,js-scroll-button-response,73,1,1,36,55           50           55           55           55           50,redredblueblueredblue,0  0  1  1  0  1,1,1
14064208,Button0Blue,0,"{""Source1"": 0.50, ""Source2"": 0.55, ""Source3"": 0.65}",40,6,6,6,8676.90000000596,red,0,6,1,js-scroll-button-response,75,0,1,37,50           65           65           55           50           65,blueblueblueredredblue,1  1  1  0  0  1,1,1
14064208,Button0Blue,0,"{""Source1"": 0.50, ""Source2"": 0.55, ""Source3"": 0.65}",40,6,6,6,10048.1000000015,red,0,6,1,js-scroll-button-response,77,0,1,38,65           55           55           55           65           55,blueblueredredbluered,1  1  0  0  1  0,1,1
14064208,Button0Blue,0,"{""Source1"": 0.50, ""Source2"": 0.55, ""Source3"": 0.65}",40,6,6,6,7477.19999999553,blue,1,6,0,js-scroll-button-response,79,0,1,39,65           55           50           50           55           50,blueredredredredred,1  0  0  0  0  0,1,1
14064208,Button0Blue,0,"{""Source1"": 0.50, ""Source2"": 0.55, ""Source3"": 0.65}",40,6,6,6,7476.89999999851,blue,0,6,0,js-scroll-button-response,81,1,1,40,55           65           65           55           50           55,redblueredblueblueblue,0  1  0  1  1  1,1,1
14064208,Button0Blue,0,"{""Source1"": 0.50, ""Source2"": 0.55, ""Source3"": 0.65}",40,6,6,6,7416.5,red,0,6,1,js-scroll-button-response,84,0,2,41,65           65           55           65           65           55,redblueblueblueblueblue,0  1  1  1  1  1,1,1
14064208,Button0Blue,0,"{""Source1"": 0.50, ""Source2"": 0.55, ""Source3"": 0.65}",40,6,6,6,8360.59999999404,red,1,6,1,js-scroll-button-response,86,1,2,42,55           65           55           50           55           50,redredblueredbluered,0  0  1  0  1  0,1,1
14064208,Button0Blue,0,"{""Source1"": 0.50, ""Source2"": 0.55, ""Source3"": 0.65}",40,6,6,6,8151.79999999702,red,1,6,1,js-scroll-button-response,88,1,2,43,65  50  65  50  65  65,redblueredblueredred,0  1  0  1  0  0,1,1
14064208,Button0Blue,0,"{""Source1"": 0.50, ""Source2"": 0.55, ""Source3"": 0.65}",40,6,6,6,6891.60000000149,blue,0,6,0,js-scroll-button-response,90,1,2,44,55           50           50           65           65           50,blueblueblueblueblueblue,1  1  1  1  1  1,1,1
14064208,Button0Blue,0,"{""Source1"": 0.50, ""Source2"": 0.55, ""Source3"": 0.65}",40,6,6,6,7558.70000000298,blue,0,6,0,js-scroll-button-response,92,1,2,45,65           50           55           55           65           55,redredredblueblueblue,0  0  0  1  1  1,1,1
14064208,Button0Blue,0,"{""Source1"": 0.50, ""Source2"": 0.55, ""Source3"": 0.65}",40,6,6,6,7544,red,1,6,1,js-scroll-button-response,94,1,2,46,50           50           55           50           50           55,redredredbluebluered,0  0  0  1  1  0,1,1
14064208,Button0Blue,0,"{""Source1"": 0.50, ""Source2"": 0.55, ""Source3"": 0.65}",40,6,6,6,6742,blue,0,6,0,js-scroll-button-response,96,1,2,47,50  50  50  65  65  50,redblueblueblueblueblue,0  1  1  1  1  1,1,1
14064208,Button0Blue,0,"{""Source1"": 0.50, ""Source2"": 0.55, ""Source3"": 0.65}",40,6,6,6,8225.89999999851,blue,0,6,0,js-scroll-button-response,98,1,2,48,50           65           50           55           65           55,blueblueredbluebluered,1  1  0  1  1  0,1,1
14064208,Button0Blue,0,"{""Source1"": 0.50, ""Source2"": 0.55, ""Source3"": 0.65}",40,6,6,6,10191,red,0,6,1,js-scroll-button-response,100,0,2,49,65           55           55           55           65           55,redblueblueredblueblue,0  1  1  0  1  1,1,1
14064208,Button0Blue,0,"{""Source1"": 0.50, ""Source2"": 0.55, ""Source3"": 0.65}",40,6,6,6,6996.89999999851,red,1,6,1,js-scroll-button-response,102,1,2,50,55           65           65           65           50           50,redredredredredred,0  0  0  0  0  0,1,1
14064208,Button0Blue,0,"{""Source1"": 0.50, ""Source2"": 0.55, ""Source3"": 0.65}",40,6,6,6,7011.19999999553,blue,0,6,0,js-scroll-button-response,104,1,2,51,50           55           50           65           55           65,bluebluebluebluebluered,1  1  1  1  1  0,1,1
14064208,Button0Blue,0,"{""Source1"": 0.50, ""Source2"": 0.55, ""Source3"": 0.65}",40,6,6,6,8925.19999999553,blue,0,6,0,js-scroll-button-response,106,1,2,52,50           65           65           50           55           65,redblueblueredredblue,0  1  1  0  0  1,1,1
14064208,Button0Blue,0,"{""Source1"": 0.50, ""Source2"": 0.55, ""Source3"": 0.65}",40,6,6,6,8158.60000000149,blue,0,6,0,js-scroll-button-response,108,1,2,53,50           50           65           50           55           65,blueredblueblueredblue,1  0  1  1  0  1,1,1
14064208,Button0Blue,0,"{""Source1"": 0.50, ""Source2"": 0.55, ""Source3"": 0.65}",40,6,6,6,10258.400000006,blue,0,6,0,js-scroll-button-response,110,1,2,54,55           65           65           65           65           55,blueblueredblueredblue,1  1  0  1  0  1,1,1
14064208,Button0Blue,0,"{""Source1"": 0.50, ""Source2"": 0.55, ""Source3"": 0.65}",40,6,6,6,6666.59999999404,blue,1,6,0,js-scroll-button-response,112,0,2,55,55           65           50           65           50           50,redblueredblueredred,0  1  0  1  0  0,1,1
14064208,Button0Blue,0,"{""Source1"": 0.50, ""Source2"": 0.55, ""Source3"": 0.65}",40,6,6,6,7845.20000000298,red,1,6,1,js-scroll-button-response,114,1,2,56,55           50           65           65           65           65,blueredredredredred,1  0  0  0  0  0,1,1
14064208,Button0Blue,0,"{""Source1"": 0.50, ""Source2"": 0.55, ""Source3"": 0.65}",40,6,6,6,7933.70000000298,blue,0,6,0,js-scroll-button-response,116,1,2,57,55           50           50           50           65           50,blueredredbluebluered,1  0  0  1  1  0,1,1
14064208,Button0Blue,0,"{""Source1"": 0.50, ""Source2"": 0.55, ""Source3"": 0.65}",40,6,6,6,12389.3999999985,blue,1,6,0,js-scroll-button-response,118,0,2,58,50           55           50           55           65           55,redredredblueredblue,0  0  0  1  0  1,1,1
14064208,Button0Blue,0,"{""Source1"": 0.50, ""Source2"": 0.55, ""Source3"": 0.65}",40,6,6,6,6058.29999999702,blue,0,6,0,js-scroll-button-response,120,1,2,59,50  65  50  65  50  50,blueblueredblueredblue,1  1  0  1  0  1,1,1
14064208,Button0Blue,0,"{""Source1"": 0.50, ""Source2"": 0.55, ""Source3"": 0.65}",40,6,6,6,6470.90000000596,blue,0,6,0,js-scroll-button-response,122,1,2,60,55           55           55           55           50           55,redblueredblueredblue,0  1  0  1  0  1,1,1
14064208,Button0Blue,0,"{""Source1"": 0.50, ""Source2"": 0.55, ""Source3"": 0.65}",40,6,6,6,12373.299999997,red,1,6,1,js-scroll-button-response,124,1,2,61,65           55           55           55           50           55,redblueredredredred,0  1  0  0  0  0,1,1
14064208,Button0Blue,0,"{""Source1"": 0.50, ""Source2"": 0.55, ""Source3"": 0.65}",40,6,6,6,8136.80000000447,red,0,6,1,js-scroll-button-response,126,0,2,62,65           65           55           65           55           65,redredblueredblueblue,0  0  1  0  1  1,1,1
14064208,Button0Blue,0,"{""Source1"": 0.50, ""Source2"": 0.55, ""Source3"": 0.65}",40,6,6,6,5512,blue,0,6,0,js-scroll-button-response,128,1,2,63,50           55           55           50           50           50,bluebluebluebluebluered,1  1  1  1  1  0,1,1
14064208,Button0Blue,0,"{""Source1"": 0.50, ""Source2"": 0.55, ""Source3"": 0.65}",40,6,6,6,6763.59999999404,red,0,6,1,js-scroll-button-response,130,0,2,64,55           55           65           65           55           65,redredblueblueredblue,0  0  1  1  0  1,1,1
14064208,Button0Blue,0,"{""Source1"": 0.50, ""Source2"": 0.55, ""Source3"": 0.65}",40,6,6,6,7941.89999999851,blue,0,6,0,js-scroll-button-response,132,1,2,65,55           50           65           55           50           65,redredredblueblueblue,0  0  0  1  1  1,1,1
14064208,Button0Blue,0,"{""Source1"": 0.50, ""Source2"": 0.55, ""Source3"": 0.65}",40,6,6,6,7153.40000000596,blue,1,6,0,js-scroll-button-response,134,0,2,66,50           55           50           65           50           50,blueredblueredbluered,1  0  1  0  1  0,1,1
14064208,Button0Blue,0,"{""Source1"": 0.50, ""Source2"": 0.55, ""Source3"": 0.65}",40,6,6,6,6088.19999999553,blue,1,6,0,js-scroll-button-response,136,0,2,67,55           50           65           65           50           65,blueredredredredblue,1  0  0  0  0  1,1,1
14064208,Button0Blue,0,"{""Source1"": 0.50, ""Source2"": 0.55, ""Source3"": 0.65}",40,6,6,6,4897.10000000149,red,1,6,1,js-scroll-button-response,138,1,2,68,55           50           65           50           50           55,redredredredredred,0  0  0  0  0  0,1,1
14064208,Button0Blue,0,"{""Source1"": 0.50, ""Source2"": 0.55, ""Source3"": 0.65}",40,6,6,6,21944,blue,0,6,0,js-scroll-button-response,140,1,2,69,50           65           50           65           55           65,blueblueredredblueblue,1  1  0  0  1  1,1,1
14064208,Button0Blue,0,"{""Source1"": 0.50, ""Source2"": 0.55, ""Source3"": 0.65}",40,6,6,6,17219.5,blue,0,6,0,js-scroll-button-response,142,1,2,70,50           55           65           65           65           50,redblueblueblueredred,0  1  1  1  0  0,1,1
14064208,Button0Blue,0,"{""Source1"": 0.50, ""Source2"": 0.55, ""Source3"": 0.65}",40,6,6,6,6650.69999999553,blue,0,6,0,js-scroll-button-response,144,1,2,71,65           50           55           55           55           50,blueredblueredbluered,1  0  1  0  1  0,1,1
14064208,Button0Blue,0,"{""Source1"": 0.50, ""Source2"": 0.55, ""Source3"": 0.65}",40,6,6,6,7821.89999999851,blue,0,6,0,js-scroll-button-response,146,1,2,72,55           50           50           50           50           55,redblueblueredredblue,0  1  1  0  0  1,1,1
14064208,Button0Blue,0,"{""Source1"": 0.50, ""Source2"": 0.55, ""Source3"": 0.65}",40,6,6,6,9149,blue,1,6,0,js-scroll-button-response,148,0,2,73,50           55           50           65           50           55,blueblueredredredred,1  1  0  0  0  0,1,1
14064208,Button0Blue,0,"{""Source1"": 0.50, ""Source2"": 0.55, ""Source3"": 0.65}",40,6,6,6,8008.69999999553,red,0,6,1,js-scroll-button-response,150,0,2,74,55           50           65           55           65           50,redredblueblueblueblue,0  0  1  1  1  1,1,1
14064208,Button0Blue,0,"{""Source1"": 0.50, ""Source2"": 0.55, ""Source3"": 0.65}",40,6,6,6,5339.39999999851,blue,0,6,0,js-scroll-button-response,152,1,2,75,50           65           55           50           50           65,blueredblueblueredblue,1  0  1  1  0  1,1,1
14064208,Button0Blue,0,"{""Source1"": 0.50, ""Source2"": 0.55, ""Source3"": 0.65}",40,6,6,6,6216.20000000298,blue,0,6,0,js-scroll-button-response,154,1,2,76,65           55           50           55           65           55,blueredredbluebluered,1  0  0  1  1  0,1,1
14064208,Button0Blue,0,"{""Source1"": 0.50, ""Source2"": 0.55, ""Source3"": 0.65}",40,6,6,6,7213.19999999553,red,1,6,1,js-scroll-button-response,156,1,2,77,55           50           55           55           50           65,redredredblueredred,0  0  0  1  0  0,1,1
14064208,Button0Blue,0,"{""Source1"": 0.50, ""Source2"": 0.55, ""Source3"": 0.65}",40,6,6,6,5766.80000000447,blue,0,6,0,js-scroll-button-response,158,1,2,78,55           65           50           65           55           65,blueblueredblueblueblue,1  1  0  1  1  1,1,1
14064208,Button0Blue,0,"{""Source1"": 0.50, ""Source2"": 0.55, ""Source3"": 0.65}",40,6,6,6,5668.5,blue,0,6,0,js-scroll-button-response,160,1,2,79,65  50  50  50  65  65,redbluebluebluebluered,0  1  1  1  1  0,1,1
14064208,Button0Blue,0,"{""Source1"": 0.50, ""Source2"": 0.55, ""Source3"": 0.65}",40,6,6,6,5541.79999999702,red,1,6,1,js-scroll-button-response,162,1,2,80,55           50           55           65           55           50,blueredredredredblue,1  0  0  0  0  1,1,1
14064208,Button0Blue,0,"{""Source1"": 0.50, ""Source2"": 0.55, ""Source3"": 0.65}",40,6,6,6,9169.79999999702,blue,1,6,0,js-scroll-button-response,165,0,3,81,65           65           55           50           65           55,blueredblueredredred,1  0  1  0  0  0,1,1
14064208,Button0Blue,0,"{""Source1"": 0.50, ""Source2"": 0.55, ""Source3"": 0.65}",40,6,6,6,6688.89999999851,blue,0,6,0,js-scroll-button-response,167,1,3,82,65           50           55           50           55           65,blueblueredredredblue,1  1  0  0  0  1,1,1
14064208,Button0Blue,0,"{""Source1"": 0.50, ""Source2"": 0.55, ""Source3"": 0.65}",40,6,6,6,8264.30000000447,blue,0,6,0,js-scroll-button-response,169,1,3,83,55           55           55           65           50           50,redblueblueblueblueblue,0  1  1  1  1  1,1,1
14064208,Button0Blue,0,"{""Source1"": 0.50, ""Source2"": 0.55, ""Source3"": 0.65}",40,6,6,6,9141,blue,0,6,0,js-scroll-button-response,171,1,3,84,55           65           55           65           65           55,redblueblueredblueblue,0  1  1  0  1  1,1,1
14064208,Button0Blue,0,"{""Source1"": 0.50, ""Source2"": 0.55, ""Source3"": 0.65}",40,6,6,6,6426.40000000596,red,0,6,1,js-scroll-button-response,173,0,3,85,65           55           55           65           65           55,blueblueredblueredred,1  1  0  1  0  0,1,1
14064208,Button0Blue,0,"{""Source1"": 0.50, ""Source2"": 0.55, ""Source3"": 0.65}",40,6,6,6,5765.59999999404,blue,1,6,0,js-scroll-button-response,175,0,3,86,65           65           55           55           55           65,blueredredbluebluered,1  0  0  1  1  0,1,1
14064208,Button0Blue,0,"{""Source1"": 0.50, ""Source2"": 0.55, ""Source3"": 0.65}",40,6,6,6,6823.60000000149,blue,0,6,0,js-scroll-button-response,177,1,3,87,65           65           65           65           65           55,redblueblueredbluered,0  1  1  0  1  0,1,1
14064208,Button0Blue,0,"{""Source1"": 0.50, ""Source2"": 0.55, ""Source3"": 0.65}",40,6,6,6,6658.79999999702,blue,1,6,0,js-scroll-button-response,179,0,3,88,55           65           50           65           55           50,redblueblueredredblue,0  1  1  0  0  1,1,1
14064208,Button0Blue,0,"{""Source1"": 0.50, ""Source2"": 0.55, ""Source3"": 0.65}",40,6,6,6,6284.70000000298,blue,0,6,0,js-scroll-button-response,181,1,3,89,55           50           50           50           65           55,blueredredredblueblue,1  0  0  0  1  1,1,1
14064208,Button0Blue,0,"{""Source1"": 0.50, ""Source2"": 0.55, ""Source3"": 0.65}",40,6,6,6,7558.40000000596,red,0,6,1,js-scroll-button-response,183,0,3,90,50           55           50           65           65           55,blueredredblueredblue,1  0  0  1  0  1,1,1
14064208,Button0Blue,0,"{""Source1"": 0.50, ""Source2"": 0.55, ""Source3"": 0.65}",40,6,6,6,6118.39999999851,blue,1,6,0,js-scroll-button-response,185,0,3,91,55           55           65           65           55           55,blueredredredblueblue,1  0  0  0  1  1,1,1
14064208,Button0Blue,0,"{""Source1"": 0.50, ""Source2"": 0.55, ""Source3"": 0.65}",40,6,6,6,5541,blue,0,6,0,js-scroll-button-response,187,1,3,92,55           55           50           50           55           65,blueredbluebluebluered,1  0  1  1  1  0,1,1
14064208,Button0Blue,0,"{""Source1"": 0.50, ""Source2"": 0.55, ""Source3"": 0.65}",40,6,6,6,6613.5,red,1,6,1,js-scroll-button-response,189,1,3,93,55           55           50           55           50           65,redredredredredred,0  0  0  0  0  0,1,1
14064208,Button0Blue,0,"{""Source1"": 0.50, ""Source2"": 0.55, ""Source3"": 0.65}",40,6,6,6,6605.60000000149,red,0,6,1,js-scroll-button-response,191,0,3,94,50  50  65  65  65  65,blueredblueredblueblue,1  0  1  0  1  1,1,1
14064208,Button0Blue,0,"{""Source1"": 0.50, ""Source2"": 0.55, ""Source3"": 0.65}",40,6,6,6,5317.20000000298,blue,0,6,0,js-scroll-button-response,193,1,3,95,65           65           50           65           55           55,blueblueredblueredred,1  1  0  1  0  0,1,1
14064208,Button0Blue,0,"{""Source1"": 0.50, ""Source2"": 0.55, ""Source3"": 0.65}",40,6,6,6,8234.10000000149,blue,0,6,0,js-scroll-button-response,195,1,3,96,50           50           65           55           55           50,blueredblueblueblueblue,1  0  1  1  1  1,1,1
14064208,Button0Blue,0,"{""Source1"": 0.50, ""Source2"": 0.55, ""Source3"": 0.65}",40,6,6,6,5848.60000000149,red,1,6,1,js-scroll-button-response,197,1,3,97,55           65           50           50           55           55,redredblueredredblue,0  0  1  0  0  1,1,1
14064208,Button0Blue,0,"{""Source1"": 0.50, ""Source2"": 0.55, ""Source3"": 0.65}",40,6,6,6,5361.5,red,1,6,1,js-scroll-button-response,199,1,3,98,55           55           55           55           50           55,redredredredblueblue,0  0  0  0  1  1,1,1
14064208,Button0Blue,0,"{""Source1"": 0.50, ""Source2"": 0.55, ""Source3"": 0.65}",40,6,6,6,4852.29999999702,blue,0,6,0,js-scroll-button-response,201,1,3,99,55           50           55           55           65           65,blueblueblueredblueblue,1  1  1  0  1  1,1,1
14064208,Button0Blue,0,"{""Source1"": 0.50, ""Source2"": 0.55, ""Source3"": 0.65}",40,6,6,6,6463.29999999702,red,1,6,1,js-scroll-button-response,203,1,3,100,50           65           65           50           65           55,redblueredredredblue,0  1  0  0  0  1,1,1
14064208,Button0Blue,0,"{""Source1"": 0.50, ""Source2"": 0.55, ""Source3"": 0.65}",40,6,6,6,5833.30000000447,red,0,6,1,js-scroll-button-response,205,0,3,101,50           55           50           55           65           55,redblueredblueblueblue,0  1  0  1  1  1,1,1
14064208,Button0Blue,0,"{""Source1"": 0.50, ""Source2"": 0.55, ""Source3"": 0.65}",40,6,6,6,6756.70000000298,red,1,6,1,js-scroll-button-response,207,1,3,102,65           55           50           50           65           65,redblueblueblueredred,0  1  1  1  0  0,1,1
14064208,Button0Blue,0,"{""Source1"": 0.50, ""Source2"": 0.55, ""Source3"": 0.65}",40,6,6,6,6066.59999999404,red,1,6,1,js-scroll-button-response,209,1,3,103,65           55           50           65           50           65,redblueredbluebluered,0  1  0  1  1  0,1,1
14064208,Button0Blue,0,"{""Source1"": 0.50, ""Source2"": 0.55, ""Source3"": 0.65}",40,6,6,6,5143.69999999553,blue,0,6,0,js-scroll-button-response,211,1,3,104,55           50           55           65           65           55,blueredbluebluebluered,1  0  1  1  1  0,1,1
14064208,Button0Blue,0,"{""Source1"": 0.50, ""Source2"": 0.55, ""Source3"": 0.65}",40,6,6,6,5390.5,blue,0,6,0,js-scroll-button-response,213,1,3,105,55           55           55           65           50           50,redredblueblueredblue,0  0  1  1  0  1,1,1
14064208,Button0Blue,0,"{""Source1"": 0.50, ""Source2"": 0.55, ""Source3"": 0.65}",40,6,6,6,6449.80000000447,blue,0,6,0,js-scroll-button-response,215,1,3,106,65  50  65  50  50  65,redblueblueredredblue,0  1  1  0  0  1,1,1
14064208,Button0Blue,0,"{""Source1"": 0.50, ""Source2"": 0.55, ""Source3"": 0.65}",40,6,6,6,5900.60000000149,blue,0,6,0,js-scroll-button-response,217,1,3,107,50           65           50           50           50           55,redblueblueredredblue,0  1  1  0  0  1,1,1
14064208,Button0Blue,0,"{""Source1"": 0.50, ""Source2"": 0.55, ""Source3"": 0.65}",40,6,6,6,6193.69999999553,red,0,6,1,js-scroll-button-response,219,0,3,108,65           65           65           50           65           55,blueredredblueblueblue,1  0  0  1  1  1,1,1
14064208,Button0Blue,0,"{""Source1"": 0.50, ""Source2"": 0.55, ""Source3"": 0.65}",40,6,6,6,7656.79999999702,blue,1,6,0,js-scroll-button-response,221,0,3,109,50           65           65           65           50           55,blueblueredredblueblue,1  1  0  0  1  1,1,1
14064208,Button0Blue,0,"{""Source1"": 0.50, ""Source2"": 0.55, ""Source3"": 0.65}",40,6,6,6,5414.10000000149,red,0,6,1,js-scroll-button-response,223,0,3,110,55           50           65           55           55           50,blueblueblueblueredblue,1  1  1  1  0  1,1,1
14064208,Button0Blue,0,"{""Source1"": 0.50, ""Source2"": 0.55, ""Source3"": 0.65}",40,6,6,6,5188.79999999702,blue,0,6,0,js-scroll-button-response,225,1,3,111,55           50           50           55           50           55,blueblueblueredbluered,1  1  1  0  1  0,1,1
14064208,Button0Blue,0,"{""Source1"": 0.50, ""Source2"": 0.55, ""Source3"": 0.65}",40,6,6,6,6906.39999999851,blue,0,6,0,js-scroll-button-response,227,1,3,112,55           50           55           50           55           55,redblueredblueblueblue,0  1  0  1  1  1,1,1
14064208,Button0Blue,0,"{""Source1"": 0.50, ""Source2"": 0.55, ""Source3"": 0.65}",40,6,6,6,5286.80000000447,blue,0,6,0,js-scroll-button-response,229,1,3,113,50           50           50           65           55           50,blueblueredredbluered,1  1  0  0  1  0,1,1
14064208,Button0Blue,0,"{""Source1"": 0.50, ""Source2"": 0.55, ""Source3"": 0.65}",40,6,6,6,5406.30000000447,red,1,6,1,js-scroll-button-response,231,1,3,114,65  50  65  65  65  50,redredredblueredred,0  0  0  1  0  0,1,1
14064208,Button0Blue,0,"{""Source1"": 0.50, ""Source2"": 0.55, ""Source3"": 0.65}",40,6,6,6,5369.60000000149,blue,1,6,0,js-scroll-button-response,233,0,3,115,50           50           55           50           50           50,blueredredredredblue,1  0  0  0  0  1,1,1
14064208,Button0Blue,0,"{""Source1"": 0.50, ""Source2"": 0.55, ""Source3"": 0.65}",40,6,6,6,5256.89999999851,blue,1,6,0,js-scroll-button-response,235,0,3,116,55           50           65           65           50           65,redblueredredblueblue,0  1  0  0  1  1,1,1
14064208,Button0Blue,0,"{""Source1"": 0.50, ""Source2"": 0.55, ""Source3"": 0.65}",40,6,6,6,5945.89999999851,red,1,6,1,js-scroll-button-response,237,1,3,117,50           50           55           50           50           55,redblueblueredbluered,0  1  1  0  1  0,1,1
14064208,Button0Blue,0,"{""Source1"": 0.50, ""Source2"": 0.55, ""Source3"": 0.65}",40,6,6,6,6539,blue,0,6,0,js-scroll-button-response,239,1,3,118,65           65           65           65           50           55,redblueblueblueblueblue,0  1  1  1  1  1,1,1
14064208,Button0Blue,0,"{""Source1"": 0.50, ""Source2"": 0.55, ""Source3"": 0.65}",40,6,6,6,6561.60000000149,blue,0,6,0,js-scroll-button-response,241,1,3,119,65           50           55           50           50           50,blueredblueredredblue,1  0  1  0  0  1,1,1
14064208,Button0Blue,0,"{""Source1"": 0.50, ""Source2"": 0.55, ""Source3"": 0.65}",40,6,6,6,6208.79999999702,blue,0,6,0,js-scroll-button-response,243,1,3,120,65           50           55           65           50           65,redblueredblueredblue,0  1  0  1  0  1,1,1
14064208,Button0Blue,0,"{""Source1"": 0.50, ""Source2"": 0.55, ""Source3"": 0.65}",40,6,6,6,5900.39999999851,blue,0,6,0,js-scroll-button-response,246,1,4,121,65           65           65           65           65           55,blueredbluebluebluered,1  0  1  1  1  0,1,1
14064208,Button0Blue,0,"{""Source1"": 0.50, ""Source2"": 0.55, ""Source3"": 0.65}",40,6,6,6,8788.79999999702,red,1,6,1,js-scroll-button-response,248,1,4,122,55           55           50           55           55           55,redblueredredbluered,0  1  0  0  1  0,1,1
14064208,Button0Blue,0,"{""Source1"": 0.50, ""Source2"": 0.55, ""Source3"": 0.65}",40,6,6,6,5467.5,blue,0,6,0,js-scroll-button-response,250,1,4,123,50           55           50           50           50           55,blueblueblueblueredblue,1  1  1  1  0  1,1,1
14064208,Button0Blue,0,"{""Source1"": 0.50, ""Source2"": 0.55, ""Source3"": 0.65}",40,6,6,6,6305.59999999404,blue,0,6,0,js-scroll-button-response,252,1,4,124,65           50           55           65           50           55,blueblueredbluebluered,1  1  0  1  1  0,1,1
14064208,Button0Blue,0,"{""Source1"": 0.50, ""Source2"": 0.55, ""Source3"": 0.65}",40,6,6,6,6052,red,0,6,1,js-scroll-button-response,254,0,4,125,50           55           65           65           65           65,blueblueblueredbluered,1  1  1  0  1  0,1,1
14064208,Button0Blue,0,"{""Source1"": 0.50, ""Source2"": 0.55, ""Source3"": 0.65}",40,6,6,6,6254.5,blue,0,6,0,js-scroll-button-response,256,1,4,126,65           50           50           55           50           50,redblueblueblueredred,0  1  1  1  0  0,1,1
14064208,Button0Blue,0,"{""Source1"": 0.50, ""Source2"": 0.55, ""Source3"": 0.65}",40,6,6,6,6156.70000000298,red,1,6,1,js-scroll-button-response,258,1,4,127,50           55           65           65           55           65,redredblueblueredred,0  0  1  1  0  0,1,1
14064208,Button0Blue,0,"{""Source1"": 0.50, ""Source2"": 0.55, ""Source3"": 0.65}",40,6,6,6,6260.89999999851,blue,0,6,0,js-scroll-button-response,260,1,4,128,50           65           50           65           55           55,blueredblueblueredblue,1  0  1  1  0  1,1,1
14064208,Button0Blue,0,"{""Source1"": 0.50, ""Source2"": 0.55, ""Source3"": 0.65}",40,6,6,6,6097,red,1,6,1,js-scroll-button-response,262,1,4,129,55           55           65           50           65           50,redredredredredred,0  0  0  0  0  0,1,1
14064208,Button0Blue,0,"{""Source1"": 0.50, ""Source2"": 0.55, ""Source3"": 0.65}",40,6,6,6,5503.59999999404,blue,0,6,0,js-scroll-button-response,264,1,4,130,55           55           65           65           55           55,redbluebluebluebluered,0  1  1  1  1  0,1,1
14064208,Button0Blue,0,"{""Source1"": 0.50, ""Source2"": 0.55, ""Source3"": 0.65}",40,6,6,6,7183.39999999851,red,1,6,1,js-scroll-button-response,266,1,4,131,50  65  65  50  50  65,blueblueredredbluered,1  1  0  0  1  0,1,1
14064208,Button0Blue,0,"{""Source1"": 0.50, ""Source2"": 0.55, ""Source3"": 0.65}",40,6,6,6,6456.70000000298,red,1,6,1,js-scroll-button-response,268,1,4,132,50           55           65           55           50           50,redredblueredredblue,0  0  1  0  0  1,1,1
14064208,Button0Blue,0,"{""Source1"": 0.50, ""Source2"": 0.55, ""Source3"": 0.65}",40,6,6,6,6358.89999999851,blue,1,6,0,js-scroll-button-response,270,0,4,133,55           65           50           50           65           50,redredredredbluered,0  0  0  0  1  0,1,1
14064208,Button0Blue,0,"{""Source1"": 0.50, ""Source2"": 0.55, ""Source3"": 0.65}",40,6,6,6,5916.5,blue,0,6,0,js-scroll-button-response,272,1,4,134,55           55           65           55           50           50,blueblueblueredredred,1  1  1  0  0  0,1,1
14064208,Button0Blue,0,"{""Source1"": 0.50, ""Source2"": 0.55, ""Source3"": 0.65}",40,6,6,6,5150.89999999851,blue,0,6,0,js-scroll-button-response,274,1,4,135,50           55           55           50           55           50,redblueblueblueredred,0  1  1  1  0  0,1,1
14064208,Button0Blue,0,"{""Source1"": 0.50, ""Source2"": 0.55, ""Source3"": 0.65}",40,6,6,6,5692.39999999851,blue,1,6,0,js-scroll-button-response,276,0,4,136,55           50           65           65           55           65,redredblueredbluered,0  0  1  0  1  0,1,1
14064208,Button0Blue,0,"{""Source1"": 0.50, ""Source2"": 0.55, ""Source3"": 0.65}",40,6,6,6,5301.69999999553,blue,0,6,0,js-scroll-button-response,278,1,4,137,50           65           65           50           65           55,redbluebluebluebluered,0  1  1  1  1  0,1,1
14064208,Button0Blue,0,"{""Source1"": 0.50, ""Source2"": 0.55, ""Source3"": 0.65}",40,6,6,6,4769.29999999702,blue,0,6,0,js-scroll-button-response,280,1,4,138,65  50  65  65  65  50,blueredbluebluebluered,1  0  1  1  1  0,1,1
14064208,Button0Blue,0,"{""Source1"": 0.50, ""Source2"": 0.55, ""Source3"": 0.65}",40,6,6,6,5555.5,blue,0,6,0,js-scroll-button-response,282,1,4,139,55           55           50           65           55           50,redbluebluebluebluered,0  1  1  1  1  0,1,1
14064208,Button0Blue,0,"{""Source1"": 0.50, ""Source2"": 0.55, ""Source3"": 0.65}",40,6,6,6,5167.10000000149,red,0,6,1,js-scroll-button-response,284,0,4,140,55           55           50           55           50           65,redblueblueblueblueblue,0  1  1  1  1  1,1,1
14064208,Button0Blue,0,"{""Source1"": 0.50, ""Source2"": 0.55, ""Source3"": 0.65}",40,6,6,6,6381.89999999851,blue,1,6,0,js-scroll-button-response,286,0,4,141,50           55           55           55           55           65,blueblueredredredred,1  1  0  0  0  0,1,1
14064208,Button0Blue,0,"{""Source1"": 0.50, ""Source2"": 0.55, ""Source3"": 0.65}",40,6,6,6,5316.69999999553,red,0,6,1,js-scroll-button-response,288,0,4,142,65  50  65  50  50  65,blueblueblueblueredblue,1  1  1  1  0  1,1,1
14064208,Button0Blue,0,"{""Source1"": 0.50, ""Source2"": 0.55, ""Source3"": 0.65}",40,6,6,6,7176.60000000149,red,1,6,1,js-scroll-button-response,290,1,4,143,55           65           55           55           55           50,redredredbluebluered,0  0  0  1  1  0,1,1
14064208,Button0Blue,0,"{""Source1"": 0.50, ""Source2"": 0.55, ""Source3"": 0.65}",40,6,6,6,5392,blue,0,6,0,js-scroll-button-response,292,1,4,144,55           50           65           50           55           65,redredblueblueredblue,0  0  1  1  0  1,1,1
14064208,Button0Blue,0,"{""Source1"": 0.50, ""Source2"": 0.55, ""Source3"": 0.65}",40,6,6,6,5210.79999999702,blue,0,6,0,js-scroll-button-response,294,1,4,145,65           65           65           65           50           55,redblueredblueblueblue,0  1  0  1  1  1,1,1
14064208,Button0Blue,0,"{""Source1"": 0.50, ""Source2"": 0.55, ""Source3"": 0.65}",40,6,6,6,5279.40000000596,blue,1,6,0,js-scroll-button-response,296,0,4,146,50           55           50           65           50           65,blueredredredredred,1  0  0  0  0  0,1,1
14064208,Button0Blue,0,"{""Source1"": 0.50, ""Source2"": 0.55, ""Source3"": 0.65}",40,6,6,6,7042,red,1,6,1,js-scroll-button-response,298,1,4,147,65           65           50           55           65           65,blueredblueredredred,1  0  1  0  0  0,1,1
14064208,Button0Blue,0,"{""Source1"": 0.50, ""Source2"": 0.55, ""Source3"": 0.65}",40,6,6,6,5233.39999999851,red,1,6,1,js-scroll-button-response,300,1,4,148,50           55           50           55           50           55,redblueredredbluered,0  1  0  0  1  0,1,1
14064208,Button0Blue,0,"{""Source1"": 0.50, ""Source2"": 0.55, ""Source3"": 0.65}",40,6,6,6,5653.5,red,0,6,1,js-scroll-button-response,302,0,4,149,65  50  50  50  65  65,blueblueredredredblue,1  1  0  0  0  1,1,1
14064208,Button0Blue,0,"{""Source1"": 0.50, ""Source2"": 0.55, ""Source3"": 0.65}",40,6,6,6,4820.60000000149,blue,0,6,0,js-scroll-button-response,304,1,4,150,55           65           55           65           55           55,bluebluebluebluebluered,1  1  1  1  1  0,1,1
14064208,Button0Blue,0,"{""Source1"": 0.50, ""Source2"": 0.55, ""Source3"": 0.65}",40,6,6,6,6569.09999999404,blue,0,6,0,js-scroll-button-response,306,1,4,151,50           50           55           50           50           55,blueredblueredredblue,1  0  1  0  0  1,1,1
14064208,Button0Blue,0,"{""Source1"": 0.50, ""Source2"": 0.55, ""Source3"": 0.65}",40,6,6,6,4785.39999999851,blue,0,6,0,js-scroll-button-response,308,1,4,152,65           50           65           65           55           50,bluebluebluebluebluered,1  1  1  1  1  0,1,1
14064208,Button0Blue,0,"{""Source1"": 0.50, ""Source2"": 0.55, ""Source3"": 0.65}",40,6,6,6,5489.10000000149,blue,0,6,0,js-scroll-button-response,310,1,4,153,50           55           55           65           50           55,blueblueblueredredblue,1  1  1  0  0  1,1,1
14064208,Button0Blue,0,"{""Source1"": 0.50, ""Source2"": 0.55, ""Source3"": 0.65}",40,6,6,6,5563.39999999851,red,1,6,1,js-scroll-button-response,312,1,4,154,55           50           55           65           55           55,blueblueblueredredred,1  1  1  0  0  0,1,1
14064208,Button0Blue,0,"{""Source1"": 0.50, ""Source2"": 0.55, ""Source3"": 0.65}",40,6,6,6,6366,blue,1,6,0,js-scroll-button-response,314,0,4,155,65  65  65  50  50  50,blueblueredblueredblue,1  1  0  1  0  1,1,1
14064208,Button0Blue,0,"{""Source1"": 0.50, ""Source2"": 0.55, ""Source3"": 0.65}",40,6,6,6,4873.89999999851,blue,1,6,0,js-scroll-button-response,316,0,4,156,65           50           55           65           50           55,blueredblueredbluered,1  0  1  0  1  0,1,1
14064208,Button0Blue,0,"{""Source1"": 0.50, ""Source2"": 0.55, ""Source3"": 0.65}",40,6,6,6,4470.10000000149,blue,0,6,0,js-scroll-button-response,318,1,4,157,65           55           65           50           55           55,blueredblueredblueblue,1  0  1  0  1  1,1,1
14064208,Button0Blue,0,"{""Source1"": 0.50, ""Source2"": 0.55, ""Source3"": 0.65}",40,6,6,6,6073.79999999702,blue,0,6,0,js-scroll-button-response,320,1,4,158,55           50           65           50           55           55,blueblueblueblueredblue,1  1  1  1  0  1,1,1
14064208,Button0Blue,0,"{""Source1"": 0.50, ""Source2"": 0.55, ""Source3"": 0.65}",40,6,6,6,5863.60000000149,blue,0,6,0,js-scroll-button-response,322,1,4,159,50           50           55           50           55           50,blueblueredredblueblue,1  1  0  0  1  1,1,1
14064208,Button0Blue,0,"{""Source1"": 0.50, ""Source2"": 0.55, ""Source3"": 0.65}",40,6,6,6,4858.79999999702,red,0,6,1,js-scroll-button-response,324,0,4,160,65           50           65           65           55           55,blueredblueblueredred,1  0  1  1  0  0,1,1
14064208,Button0Blue,0,"{""Source1"": 0.50, ""Source2"": 0.55, ""Source3"": 0.65}",40,6,6,6,5549.10000000149,blue,1,6,0,js-scroll-button-response,327,0,5,161,65           50           50           55           55           55,redredblueblueredblue,0  0  1  1  0  1,1,1
14064208,Button0Blue,0,"{""Source1"": 0.50, ""Source2"": 0.55, ""Source3"": 0.65}",40,6,6,6,5804.79999999702,blue,0,6,0,js-scroll-button-response,329,1,5,162,50           50           65           55           50           65,redblueblueblueblueblue,0  1  1  1  1  1,1,1
14064208,Button0Blue,0,"{""Source1"": 0.50, ""Source2"": 0.55, ""Source3"": 0.65}",40,6,6,6,4807,blue,0,6,0,js-scroll-button-response,331,1,5,163,50           65           50           55           55           65,blueblueredredblueblue,1  1  0  0  1  1,1,1
14064208,Button0Blue,0,"{""Source1"": 0.50, ""Source2"": 0.55, ""Source3"": 0.65}",40,6,6,6,6501.60000000149,blue,0,6,0,js-scroll-button-response,333,1,5,164,55           50           55           50           65           50,blueblueblueblueblueblue,1  1  1  1  1  1,1,1
14064208,Button0Blue,0,"{""Source1"": 0.50, ""Source2"": 0.55, ""Source3"": 0.65}",40,6,6,6,22694.5,red,1,6,1,js-scroll-button-response,335,1,5,165,55           65           50           55           55           65,redblueblueblueredred,0  1  1  1  0  0,1,1
14064208,Button0Blue,0,"{""Source1"": 0.50, ""Source2"": 0.55, ""Source3"": 0.65}",40,6,6,6,4499.20000000298,red,1,6,1,js-scroll-button-response,337,1,5,166,65           65           55           50           50           55,redredredredblueblue,0  0  0  0  1  1,1,1
14064208,Button0Blue,0,"{""Source1"": 0.50, ""Source2"": 0.55, ""Source3"": 0.65}",40,6,6,6,5150.80000000447,red,1,6,1,js-scroll-button-response,339,1,5,167,50           50           50           50           55           50,blueredblueblueredblue,1  0  1  1  0  1,1,1
14064208,Button0Blue,0,"{""Source1"": 0.50, ""Source2"": 0.55, ""Source3"": 0.65}",40,6,6,6,5174.60000000149,red,0,6,1,js-scroll-button-response,341,0,5,168,65           65           55           65           50           50,redredbluebluebluered,0  0  1  1  1  0,1,1
14064208,Button0Blue,0,"{""Source1"": 0.50, ""Source2"": 0.55, ""Source3"": 0.65}",40,6,6,6,4986.09999999404,blue,1,6,0,js-scroll-button-response,343,0,5,169,50           65           50           65           50           55,redblueblueredredred,0  1  1  0  0  0,1,1
14064208,Button0Blue,0,"{""Source1"": 0.50, ""Source2"": 0.55, ""Source3"": 0.65}",40,6,6,6,4926.70000000298,blue,0,6,0,js-scroll-button-response,345,1,5,170,50           55           65           50           65           65,redblueblueredblueblue,0  1  1  0  1  1,1,1
14064208,Button0Blue,0,"{""Source1"": 0.50, ""Source2"": 0.55, ""Source3"": 0.65}",40,6,6,6,4483.79999999702,blue,0,6,0,js-scroll-button-response,347,1,5,171,65           65           55           65           55           50,blueblueblueblueredred,1  1  1  1  0  0,1,1
14064208,Button0Blue,0,"{""Source1"": 0.50, ""Source2"": 0.55, ""Source3"": 0.65}",40,6,6,6,4851.59999999404,blue,0,6,0,js-scroll-button-response,349,1,5,172,50           50           55           65           50           50,blueblueredbluebluered,1  1  0  1  1  0,1,1
14064208,Button0Blue,0,"{""Source1"": 0.50, ""Source2"": 0.55, ""Source3"": 0.65}",40,6,6,6,6883.60000000149,blue,1,6,0,js-scroll-button-response,351,0,5,173,50  65  65  65  65  65,redredredredredblue,0  0  0  0  0  1,1,1
14064208,Button0Blue,0,"{""Source1"": 0.50, ""Source2"": 0.55, ""Source3"": 0.65}",40,6,6,6,4438.60000000149,blue,1,6,0,js-scroll-button-response,353,0,5,174,50  65  65  65  50  65,redredredredbluered,0  0  0  0  1  0,1,1
14064208,Button0Blue,0,"{""Source1"": 0.50, ""Source2"": 0.55, ""Source3"": 0.65}",40,6,6,6,5211.79999999702,red,1,6,1,js-scroll-button-response,355,1,5,175,55           65           55           50           65           50,redredblueredredblue,0  0  1  0  0  1,1,1
14064208,Button0Blue,0,"{""Source1"": 0.50, ""Source2"": 0.55, ""Source3"": 0.65}",40,6,6,6,5848.39999999851,blue,0,6,0,js-scroll-button-response,357,1,5,176,50  50  65  65  50  50,redblueblueblueredblue,0  1  1  1  0  1,1,1
14064208,Button0Blue,0,"{""Source1"": 0.50, ""Source2"": 0.55, ""Source3"": 0.65}",40,6,6,6,5518.89999999851,red,0,6,1,js-scroll-button-response,359,0,5,177,65           65           65           55           65           55,blueblueredblueredblue,1  1  0  1  0  1,1,1
14064208,Button0Blue,0,"{""Source1"": 0.50, ""Source2"": 0.55, ""Source3"": 0.65}",40,6,6,6,4956.60000000149,blue,1,6,0,js-scroll-button-response,361,0,5,178,65           65           50           65           55           65,redredredblueredblue,0  0  0  1  0  1,1,1
14064208,Button0Blue,0,"{""Source1"": 0.50, ""Source2"": 0.55, ""Source3"": 0.65}",40,6,6,6,5488.89999999851,red,1,6,1,js-scroll-button-response,363,1,5,179,55           50           55           50           65           55,blueblueredredredblue,1  1  0  0  0  1,1,1
14064208,Button0Blue,0,"{""Source1"": 0.50, ""Source2"": 0.55, ""Source3"": 0.65}",40,6,6,6,7679.69999999553,blue,0,6,0,js-scroll-button-response,365,1,5,180,50           50           65           55           50           55,blueredblueblueredblue,1  0  1  1  0  1,1,1
14064208,Button0Blue,0,"{""Source1"": 0.50, ""Source2"": 0.55, ""Source3"": 0.65}",40,6,6,6,4940.70000000298,blue,1,6,0,js-scroll-button-response,367,0,5,181,65           55           65           50           50           50,blueredredbluebluered,1  0  0  1  1  0,1,1
14064208,Button0Blue,0,"{""Source1"": 0.50, ""Source2"": 0.55, ""Source3"": 0.65}",40,6,6,6,4760.5,red,0,6,1,js-scroll-button-response,369,0,5,182,50           50           50           55           50           65,redblueblueblueblueblue,0  1  1  1  1  1,1,1
14064208,Button0Blue,0,"{""Source1"": 0.50, ""Source2"": 0.55, ""Source3"": 0.65}",40,6,6,6,5503.69999999553,red,1,6,1,js-scroll-button-response,371,1,5,183,65           65           65           65           50           55,redredblueredredred,0  0  1  0  0  0,1,1
14064208,Button0Blue,0,"{""Source1"": 0.50, ""Source2"": 0.55, ""Source3"": 0.65}",40,6,6,6,6358.19999999553,blue,0,6,0,js-scroll-button-response,373,1,5,184,50  65  50  65  65  65,blueblueredredblueblue,1  1  0  0  1  1,1,1
14064208,Button0Blue,0,"{""Source1"": 0.50, ""Source2"": 0.55, ""Source3"": 0.65}",40,6,6,6,5114.30000000447,red,1,6,1,js-scroll-button-response,375,1,5,185,65           55           50           50           65           55,redredblueredredblue,0  0  1  0  0  1,1,1
14064208,Button0Blue,0,"{""Source1"": 0.50, ""Source2"": 0.55, ""Source3"": 0.65}",40,6,6,6,5938.90000000596,blue,0,6,0,js-scroll-button-response,377,1,5,186,50           55           55           50           55           65,redredredredblueblue,0  0  0  0  1  1,1,1
14064208,Button0Blue,0,"{""Source1"": 0.50, ""Source2"": 0.55, ""Source3"": 0.65}",40,6,6,6,5773,blue,1,6,0,js-scroll-button-response,379,0,5,187,50           65           50           50           55           55,blueredblueredbluered,1  0  1  0  1  0,1,1
14064208,Button0Blue,0,"{""Source1"": 0.50, ""Source2"": 0.55, ""Source3"": 0.65}",40,6,6,6,5900.79999999702,blue,0,6,0,js-scroll-button-response,381,1,5,188,50           65           50           55           65           50,blueredredredbluered,1  0  0  0  1  0,1,1
14064208,Button0Blue,0,"{""Source1"": 0.50, ""Source2"": 0.55, ""Source3"": 0.65}",40,6,6,6,5308.80000000447,red,0,6,1,js-scroll-button-response,383,0,5,189,50  50  50  50  65  50,blueblueredbluebluered,1  1  0  1  1  0,1,1
14064208,Button0Blue,0,"{""Source1"": 0.50, ""Source2"": 0.55, ""Source3"": 0.65}",40,6,6,6,5324,blue,0,6,0,js-scroll-button-response,385,1,5,190,65           50           65           55           50           55,blueredblueblueblueblue,1  0  1  1  1  1,1,1
14064208,Button0Blue,0,"{""Source1"": 0.50, ""Source2"": 0.55, ""Source3"": 0.65}",40,6,6,6,5240.40000000596,blue,1,6,0,js-scroll-button-response,387,0,5,191,65           50           55           50           65           50,redredblueredbluered,0  0  1  0  1  0,1,1
14064208,Button0Blue,0,"{""Source1"": 0.50, ""Source2"": 0.55, ""Source3"": 0.65}",40,6,6,6,9088.40000000596,blue,0,6,0,js-scroll-button-response,389,1,5,192,55           55           50           55           50           55,blueblueredblueredred,1  1  0  1  0  0,1,1
14064208,Button0Blue,0,"{""Source1"": 0.50, ""Source2"": 0.55, ""Source3"": 0.65}",40,6,6,6,6463.79999999702,blue,1,6,0,js-scroll-button-response,391,0,5,193,55           65           50           50           50           55,blueredredredblueblue,1  0  0  0  1  1,1,1
14064208,Button0Blue,0,"{""Source1"": 0.50, ""Source2"": 0.55, ""Source3"": 0.65}",40,6,6,6,4985.10000000149,red,1,6,1,js-scroll-button-response,393,1,5,194,65           55           55           65           65           65,redredredredredblue,0  0  0  0  0  1,1,1
14064208,Button0Blue,0,"{""Source1"": 0.50, ""Source2"": 0.55, ""Source3"": 0.65}",40,6,6,6,5548.5,red,0,6,1,js-scroll-button-response,395,0,5,195,65           50           55           65           65           55,blueblueredredbluered,1  1  0  0  1  0,1,1
14064208,Button0Blue,0,"{""Source1"": 0.50, ""Source2"": 0.55, ""Source3"": 0.65}",40,6,6,6,5684.10000000149,red,0,6,1,js-scroll-button-response,397,0,5,196,50  50  50  65  50  50,redredredblueblueblue,0  0  0  1  1  1,1,1
14064208,Button0Blue,0,"{""Source1"": 0.50, ""Source2"": 0.55, ""Source3"": 0.65}",40,6,6,6,6366.39999999851,blue,0,6,0,js-scroll-button-response,399,1,5,197,65           50           50           50           55           50,redblueredredblueblue,0  1  0  0  1  1,1,1
14064208,Button0Blue,0,"{""Source1"": 0.50, ""Source2"": 0.55, ""Source3"": 0.65}",40,6,6,6,7394.69999999553,blue,1,6,0,js-scroll-button-response,401,0,5,198,65  65  50  65  50  50,blueredblueredbluered,1  0  1  0  1  0,1,1
14064208,Button0Blue,0,"{""Source1"": 0.50, ""Source2"": 0.55, ""Source3"": 0.65}",40,6,6,6,8616.60000000149,blue,0,6,0,js-scroll-button-response,403,1,5,199,55           55           55           65           65           65,blueredredbluebluered,1  0  0  1  1  0,1,1
14064208,Button0Blue,0,"{""Source1"": 0.50, ""Source2"": 0.55, ""Source3"": 0.65}",40,6,6,6,4732.29999999702,blue,0,6,0,js-scroll-button-response,405,1,5,200,55           55           55           65           50           55,blueblueredblueblueblue,1  1  0  1  1  1,1,1
14064208,Button0Blue,0,"{""Source1"": 0.50, ""Source2"": 0.55, ""Source3"": 0.65}",40,6,6,6,7130.39999999851,blue,0,6,0,js-scroll-button-response,408,1,6,201,65  65  65  65  50  65,blueredblueblueblueblue,1  0  1  1  1  1,1,1
14064208,Button0Blue,0,"{""Source1"": 0.50, ""Source2"": 0.55, ""Source3"": 0.65}",40,6,6,6,6156.29999999702,blue,0,6,0,js-scroll-button-response,410,1,6,202,50  50  65  65  50  65,blueredblueblueblueblue,1  0  1  1  1  1,1,1
14064208,Button0Blue,0,"{""Source1"": 0.50, ""Source2"": 0.55, ""Source3"": 0.65}",40,6,6,6,7274.20000000298,blue,1,6,0,js-scroll-button-response,412,0,6,203,65           55           55           55           50           65,blueredredredbluered,1  0  0  0  1  0,1,1
14064208,Button0Blue,0,"{""Source1"": 0.50, ""Source2"": 0.55, ""Source3"": 0.65}",40,6,6,6,7063.59999999404,red,1,6,1,js-scroll-button-response,414,1,6,204,50           55           50           65           50           65,redblueredblueredred,0  1  0  1  0  0,1,1
14064208,Button0Blue,0,"{""Source1"": 0.50, ""Source2"": 0.55, ""Source3"": 0.65}",40,6,6,6,10123.299999997,blue,0,6,0,js-scroll-button-response,416,1,6,205,50           55           50           65           55           65,blueredblueblueredblue,1  0  1  1  0  1,1,1
14064208,Button0Blue,0,"{""Source1"": 0.50, ""Source2"": 0.55, ""Source3"": 0.65}",40,6,6,6,6718.69999999553,blue,0,6,0,js-scroll-button-response,418,1,6,206,55           65           65           65           55           50,redbluebluebluebluered,0  1  1  1  1  0,1,1
14064208,Button0Blue,0,"{""Source1"": 0.50, ""Source2"": 0.55, ""Source3"": 0.65}",40,6,6,6,8135.69999999553,blue,0,6,0,js-scroll-button-response,420,1,6,207,55           50           50           55           65           55,redblueredbluebluered,0  1  0  1  1  0,1,1
14064208,Button0Blue,0,"{""Source1"": 0.50, ""Source2"": 0.55, ""Source3"": 0.65}",40,6,6,6,7552.10000000149,blue,0,6,0,js-scroll-button-response,422,1,6,208,50           65           55           55           65           55,blueredredbluebluered,1  0  0  1  1  0,1,1
14064208,Button0Blue,0,"{""Source1"": 0.50, ""Source2"": 0.55, ""Source3"": 0.65}",40,6,6,6,6756.79999999702,red,1,6,1,js-scroll-button-response,424,1,6,209,55           50           50           55           55           50,redredredblueredred,0  0  0  1  0  0,1,1
14064208,Button0Blue,0,"{""Source1"": 0.50, ""Source2"": 0.55, ""Source3"": 0.65}",40,6,6,6,6307,blue,0,6,0,js-scroll-button-response,426,1,6,210,55           65           55           65           55           55,blueblueredbluebluered,1  1  0  1  1  0,1,1
14064208,Button0Blue,0,"{""Source1"": 0.50, ""Source2"": 0.55, ""Source3"": 0.65}",40,6,6,6,7603.5,red,0,6,1,js-scroll-button-response,428,0,6,211,50  50  50  65  65  65,blueredblueblueredblue,1  0  1  1  0  1,1,1
14064208,Button0Blue,0,"{""Source1"": 0.50, ""Source2"": 0.55, ""Source3"": 0.65}",40,6,6,6,5992.5,red,1,6,1,js-scroll-button-response,430,1,6,212,50           50           55           65           65           55,blueredblueredredred,1  0  1  0  0  0,1,1
14064208,Button0Blue,0,"{""Source1"": 0.50, ""Source2"": 0.55, ""Source3"": 0.65}",40,6,6,6,7926.29999999702,blue,1,6,0,js-scroll-button-response,432,0,6,213,55           65           65           50           65           50,redblueredredbluered,0  1  0  0  1  0,1,1
14064208,Button0Blue,0,"{""Source1"": 0.50, ""Source2"": 0.55, ""Source3"": 0.65}",40,6,6,6,5886.09999999404,red,1,6,1,js-scroll-button-response,434,1,6,214,50           50           55           55           65           50,blueredredredbluered,1  0  0  0  1  0,1,1
14064208,Button0Blue,0,"{""Source1"": 0.50, ""Source2"": 0.55, ""Source3"": 0.65}",40,6,6,6,6187.20000000298,red,1,6,1,js-scroll-button-response,436,1,6,215,65           65           65           50           65           55,redredredredredblue,0  0  0  0  0  1,1,1
14064208,Button0Blue,0,"{""Source1"": 0.50, ""Source2"": 0.55, ""Source3"": 0.65}",40,6,6,6,5668.89999999851,blue,0,6,0,js-scroll-button-response,438,1,6,216,55           65           55           50           50           55,blueblueblueredbluered,1  1  1  0  1  0,1,1
14064208,Button0Blue,0,"{""Source1"": 0.50, ""Source2"": 0.55, ""Source3"": 0.65}",40,6,6,6,7033.79999999702,blue,0,6,0,js-scroll-button-response,440,1,6,217,55           65           50           50           50           65,redredblueredblueblue,0  0  1  0  1  1,1,1
14064208,Button0Blue,0,"{""Source1"": 0.50, ""Source2"": 0.55, ""Source3"": 0.65}",40,6,6,6,6253.69999999553,blue,0,6,0,js-scroll-button-response,442,1,6,218,50           50           55           65           55           55,blueblueblueblueredblue,1  1  1  1  0  1,1,1
14064208,Button0Blue,0,"{""Source1"": 0.50, ""Source2"": 0.55, ""Source3"": 0.65}",40,6,6,6,7446.89999999851,red,0,6,1,js-scroll-button-response,444,0,6,219,50           50           55           65           50           65,redredblueblueredblue,0  0  1  1  0  1,1,1
14064208,Button0Blue,0,"{""Source1"": 0.50, ""Source2"": 0.55, ""Source3"": 0.65}",40,6,6,6,34258.700000003,blue,1,6,0,js-scroll-button-response,446,0,6,220,50           50           55           65           55           65,redredblueredredred,0  0  1  0  0  0,1,1
14064208,Button0Blue,0,"{""Source1"": 0.50, ""Source2"": 0.55, ""Source3"": 0.65}",40,6,6,6,4881.20000000298,blue,0,6,0,js-scroll-button-response,448,1,6,221,65           50           55           55           65           50,blueblueredblueblueblue,1  1  0  1  1  1,1,1
14064208,Button0Blue,0,"{""Source1"": 0.50, ""Source2"": 0.55, ""Source3"": 0.65}",40,6,6,6,5331.10000000149,blue,0,6,0,js-scroll-button-response,450,1,6,222,50           50           65           55           55           55,blueredblueredblueblue,1  0  1  0  1  1,1,1
14064208,Button0Blue,0,"{""Source1"": 0.50, ""Source2"": 0.55, ""Source3"": 0.65}",40,6,6,6,4821.39999999851,red,0,6,1,js-scroll-button-response,452,0,6,223,55           50           55           55           55           55,blueredredredblueblue,1  0  0  0  1  1,1,1
14064208,Button0Blue,0,"{""Source1"": 0.50, ""Source2"": 0.55, ""Source3"": 0.65}",40,6,6,6,4656.69999999553,red,1,6,1,js-scroll-button-response,454,1,6,224,50           65           55           50           65           65,blueredredredredred,1  0  0  0  0  0,1,1
14064208,Button0Blue,0,"{""Source1"": 0.50, ""Source2"": 0.55, ""Source3"": 0.65}",40,6,6,6,4746.09999999404,blue,0,6,0,js-scroll-button-response,456,1,6,225,55           50           50           50           65           65,redblueredblueblueblue,0  1  0  1  1  1,1,1
14064208,Button0Blue,0,"{""Source1"": 0.50, ""Source2"": 0.55, ""Source3"": 0.65}",40,6,6,6,7513.70000000298,blue,1,6,0,js-scroll-button-response,458,0,6,226,55           65           65           50           55           55,redblueblueredredred,0  1  1  0  0  0,1,1
14064208,Button0Blue,0,"{""Source1"": 0.50, ""Source2"": 0.55, ""Source3"": 0.65}",40,6,6,6,6172.19999999553,blue,0,6,0,js-scroll-button-response,460,1,6,227,55           50           50           65           65           65,blueredbluebluebluered,1  0  1  1  1  0,1,1
14064208,Button0Blue,0,"{""Source1"": 0.50, ""Source2"": 0.55, ""Source3"": 0.65}",40,6,6,6,5241.5,blue,1,6,0,js-scroll-button-response,462,0,6,228,55           65           55           55           50           50,blueredblueredredblue,1  0  1  0  0  1,1,1
14064208,Button0Blue,0,"{""Source1"": 0.50, ""Source2"": 0.55, ""Source3"": 0.65}",40,6,6,6,4611.79999999702,blue,0,6,0,js-scroll-button-response,464,1,6,229,50           50           50           55           55           65,redbluebluebluebluered,0  1  1  1  1  0,1,1
14064208,Button0Blue,0,"{""Source1"": 0.50, ""Source2"": 0.55, ""Source3"": 0.65}",40,6,6,6,4987.5,red,0,6,1,js-scroll-button-response,466,0,6,230,65           50           55           55           50           55,redblueredblueblueblue,0  1  0  1  1  1,1,1
14064208,Button0Blue,0,"{""Source1"": 0.50, ""Source2"": 0.55, ""Source3"": 0.65}",40,6,6,6,4447,blue,0,6,0,js-scroll-button-response,468,1,6,231,65  50  65  65  50  50,blueblueblueblueblueblue,1  1  1  1  1  1,1,1
14064208,Button0Blue,0,"{""Source1"": 0.50, ""Source2"": 0.55, ""Source3"": 0.65}",40,6,6,6,4821.29999999702,red,0,6,1,js-scroll-button-response,470,0,6,232,65           65           55           50           65           55,blueblueredblueredred,1  1  0  1  0  0,1,1
14064208,Button0Blue,0,"{""Source1"": 0.50, ""Source2"": 0.55, ""Source3"": 0.65}",40,6,6,6,4461.5,red,0,6,1,js-scroll-button-response,472,0,6,233,65           65           65           65           50           55,redblueredblueblueblue,0  1  0  1  1  1,1,1
14064208,Button0Blue,0,"{""Source1"": 0.50, ""Source2"": 0.55, ""Source3"": 0.65}",40,6,6,6,5091.79999999702,red,1,6,1,js-scroll-button-response,474,1,6,234,65           50           65           55           50           65,blueblueredredbluered,1  1  0  0  1  0,1,1
14064208,Button0Blue,0,"{""Source1"": 0.50, ""Source2"": 0.55, ""Source3"": 0.65}",40,6,6,6,5482.29999999702,blue,0,6,0,js-scroll-button-response,476,1,6,235,50           50           65           55           55           55,redblueblueblueredblue,0  1  1  1  0  1,1,1
14064208,Button0Blue,0,"{""Source1"": 0.50, ""Source2"": 0.55, ""Source3"": 0.65}",40,6,6,6,6217,blue,1,6,0,js-scroll-button-response,478,0,6,236,55           50           50           65           55           65,blueblueblueredredred,1  1  1  0  0  0,1,1
14064208,Button0Blue,0,"{""Source1"": 0.50, ""Source2"": 0.55, ""Source3"": 0.65}",40,6,6,6,4438.79999999702,red,1,6,1,js-scroll-button-response,480,1,6,237,50           55           50           65           50           55,blueredblueredredred,1  0  1  0  0  0,1,1
14064208,Button0Blue,0,"{""Source1"": 0.50, ""Source2"": 0.55, ""Source3"": 0.65}",40,6,6,6,5481.5,blue,1,6,0,js-scroll-button-response,482,0,6,238,65           55           65           50           55           50,redredblueblueredred,0  0  1  1  0  0,1,1
14064208,Button0Blue,0,"{""Source1"": 0.50, ""Source2"": 0.55, ""Source3"": 0.65}",40,6,6,6,4866.59999999404,blue,0,6,0,js-scroll-button-response,484,1,6,239,50           65           65           55           65           65,redblueblueblueblueblue,0  1  1  1  1  1,1,1
14064208,Button0Blue,0,"{""Source1"": 0.50, ""Source2"": 0.55, ""Source3"": 0.65}",40,6,6,6,5068.5,blue,1,6,0,js-scroll-button-response,486,0,6,240,55           50           65           55           50           55,redblueredredredred,0  1  0  0  0  0,1,1
14064214,Button0Red,1,"{""Source1"": 0.50, ""Source2"": 0.55, ""Source3"": 0.65}",40,6,6,6,10199.4000000954,red,1,6,0,js-scroll-button-response,3,0,1,1,65           55           65           50           55           50,blueredblueredredred,0  1  0  1  1  1,1,1
14064214,Button0Red,1,"{""Source1"": 0.50, ""Source2"": 0.55, ""Source3"": 0.65}",40,6,6,6,6353.39999985695,blue,0,6,1,js-scroll-button-response,5,0,1,2,50  65  65  50  50  65,blueredblueblueredred,0  1  0  0  1  1,1,1
14064214,Button0Red,1,"{""Source1"": 0.50, ""Source2"": 0.55, ""Source3"": 0.65}",40,6,6,6,6189.10000014305,blue,1,6,1,js-scroll-button-response,7,1,1,3,55           65           65           50           65           50,blueblueblueredbluered,0  0  0  1  0  1,1,1
14064214,Button0Red,1,"{""Source1"": 0.50, ""Source2"": 0.55, ""Source3"": 0.65}",40,6,6,6,5588.09999990463,blue,1,6,1,js-scroll-button-response,9,1,1,4,65           50           65           50           50           55,redblueredredblueblue,1  0  1  1  0  0,1,1
14064214,Button0Red,1,"{""Source1"": 0.50, ""Source2"": 0.55, ""Source3"": 0.65}",40,6,6,6,9256.09999990463,red,1,6,0,js-scroll-button-response,11,0,1,5,55           50           65           50           55           65,redblueblueblueredblue,1  0  0  0  1  0,1,1
14064214,Button0Red,1,"{""Source1"": 0.50, ""Source2"": 0.55, ""Source3"": 0.65}",40,6,6,6,4124.59999990463,blue,1,6,1,js-scroll-button-response,13,1,1,6,55           50           50           65           55           65,redredredblueblueblue,1  1  1  0  0  0,1,1
14064214,Button0Red,1,"{""Source1"": 0.50, ""Source2"": 0.55, ""Source3"": 0.65}",40,6,6,6,4123.90000009537,blue,1,6,1,js-scroll-button-response,15,1,1,7,65           65           55           65           50           65,blueblueblueblueblueblue,0  0  0  0  0  0,1,1
14064214,Button0Red,1,"{""Source1"": 0.50, ""Source2"": 0.55, ""Source3"": 0.65}",40,6,6,6,4161.39999985695,blue,1,6,1,js-scroll-button-response,17,1,1,8,50           55           65           65           55           55,redblueredblueredblue,1  0  1  0  1  0,1,1
14064214,Button0Red,1,"{""Source1"": 0.50, ""Source2"": 0.55, ""Source3"": 0.65}",40,6,6,6,4291.29999995232,blue,1,6,1,js-scroll-button-response,19,1,1,9,55           55           50           50           50           55,blueredblueblueblueblue,0  1  0  0  0  0,1,1
14064214,Button0Red,1,"{""Source1"": 0.50, ""Source2"": 0.55, ""Source3"": 0.65}",40,6,6,6,3953.29999995232,red,0,6,0,js-scroll-button-response,21,1,1,10,65           65           65           55           50           55,redredblueredblueblue,1  1  0  1  0  0,1,1
14064214,Button0Red,1,"{""Source1"": 0.50, ""Source2"": 0.55, ""Source3"": 0.65}",40,6,6,6,4481.10000014305,red,0,6,0,js-scroll-button-response,23,1,1,11,50           65           55           50           50           65,blueredredredbluered,0  1  1  1  0  1,1,1
14064214,Button0Red,1,"{""Source1"": 0.50, ""Source2"": 0.55, ""Source3"": 0.65}",40,6,6,6,7232.39999985695,red,1,6,0,js-scroll-button-response,25,0,1,12,55           55           55           55           55           55,blueredredblueredblue,0  1  1  0  1  0,1,1
14064214,Button0Red,1,"{""Source1"": 0.50, ""Source2"": 0.55, ""Source3"": 0.65}",40,6,6,6,4553.39999985695,blue,0,6,1,js-scroll-button-response,27,0,1,13,55           55           55           55           65           50,redblueblueredredblue,1  0  0  1  1  0,1,1
14064214,Button0Red,1,"{""Source1"": 0.50, ""Source2"": 0.55, ""Source3"": 0.65}",40,6,6,6,4904.29999995232,blue,1,6,1,js-scroll-button-response,29,1,1,14,55           50           65           50           55           55,redblueblueblueredblue,1  0  0  0  1  0,1,1
14064214,Button0Red,1,"{""Source1"": 0.50, ""Source2"": 0.55, ""Source3"": 0.65}",40,6,6,6,4888.79999995232,blue,1,6,1,js-scroll-button-response,31,1,1,15,50           50           50           50           50           55,redblueredblueblueblue,1  0  1  0  0  0,1,1
14064214,Button0Red,1,"{""Source1"": 0.50, ""Source2"": 0.55, ""Source3"": 0.65}",40,6,6,6,4243.29999995232,red,1,6,0,js-scroll-button-response,33,0,1,16,65           55           50           50           55           50,blueredredredblueblue,0  1  1  1  0  0,1,1
14064214,Button0Red,1,"{""Source1"": 0.50, ""Source2"": 0.55, ""Source3"": 0.65}",40,6,6,6,6497.79999995232,blue,0,6,1,js-scroll-button-response,35,0,1,17,65           55           55           50           55           50,blueredredredbluered,0  1  1  1  0  1,1,1
14064214,Button0Red,1,"{""Source1"": 0.50, ""Source2"": 0.55, ""Source3"": 0.65}",40,6,6,6,4493.39999985695,red,0,6,0,js-scroll-button-response,37,1,1,18,50           50           50           55           50           65,blueblueredredbluered,0  0  1  1  0  1,1,1
14064214,Button0Red,1,"{""Source1"": 0.50, ""Source2"": 0.55, ""Source3"": 0.65}",40,6,6,6,4354.70000004768,blue,1,6,1,js-scroll-button-response,39,1,1,19,65           50           55           65           50           50,blueblueredblueblueblue,0  0  1  0  0  0,1,1
14064214,Button0Red,1,"{""Source1"": 0.50, ""Source2"": 0.55, ""Source3"": 0.65}",40,6,6,6,6542.70000004768,blue,1,6,1,js-scroll-button-response,41,1,1,20,50           65           50           55           65           55,redblueredredblueblue,1  0  1  1  0  0,1,1
14064214,Button0Red,1,"{""Source1"": 0.50, ""Source2"": 0.55, ""Source3"": 0.65}",40,6,6,6,4746.79999995232,blue,1,6,1,js-scroll-button-response,43,1,1,21,65           55           55           55           50           55,blueredblueredredblue,0  1  0  1  1  0,1,1
14064214,Button0Red,1,"{""Source1"": 0.50, ""Source2"": 0.55, ""Source3"": 0.65}",40,6,6,6,5312.90000009537,blue,1,6,1,js-scroll-button-response,45,1,1,22,55           65           50           65           65           50,blueblueblueblueredblue,0  0  0  0  1  0,1,1
14064214,Button0Red,1,"{""Source1"": 0.50, ""Source2"": 0.55, ""Source3"": 0.65}",40,6,6,6,5410.89999985695,red,0,6,0,js-scroll-button-response,47,1,1,23,55           50           65           65           55           65,redblueredredredred,1  0  1  1  1  1,1,1
14064214,Button0Red,1,"{""Source1"": 0.50, ""Source2"": 0.55, ""Source3"": 0.65}",40,6,6,6,4709,red,1,6,0,js-scroll-button-response,49,0,1,24,65           55           50           55           65           65,blueredblueblueblueblue,0  1  0  0  0  0,1,1
14064214,Button0Red,1,"{""Source1"": 0.50, ""Source2"": 0.55, ""Source3"": 0.65}",40,6,6,6,3433.20000004768,blue,1,6,1,js-scroll-button-response,51,1,1,25,55           55           65           55           50           55,redredblueblueblueblue,1  1  0  0  0  0,1,1
14064214,Button0Red,1,"{""Source1"": 0.50, ""Source2"": 0.55, ""Source3"": 0.65}",40,6,6,6,4164.30000019073,red,1,6,0,js-scroll-button-response,53,0,1,26,55           65           55           55           65           65,redredblueredredblue,1  1  0  1  1  0,1,1
14064214,Button0Red,1,"{""Source1"": 0.50, ""Source2"": 0.55, ""Source3"": 0.65}",40,6,6,6,3318.70000004768,blue,1,6,1,js-scroll-button-response,55,1,1,27,55           50           55           50           65           65,blueredblueredblueblue,0  1  0  1  0  0,1,1
14064214,Button0Red,1,"{""Source1"": 0.50, ""Source2"": 0.55, ""Source3"": 0.65}",40,6,6,6,3418.59999990463,blue,1,6,1,js-scroll-button-response,57,1,1,28,55           65           50           55           50           55,redblueredblueblueblue,1  0  1  0  0  0,1,1
14064214,Button0Red,1,"{""Source1"": 0.50, ""Source2"": 0.55, ""Source3"": 0.65}",40,6,6,6,3052.19999980927,blue,0,6,1,js-scroll-button-response,59,0,1,29,55           50           65           50           65           55,redredredblueredred,1  1  1  0  1  1,1,1
14064214,Button0Red,1,"{""Source1"": 0.50, ""Source2"": 0.55, ""Source3"": 0.65}",40,6,6,6,6513.5,blue,1,6,1,js-scroll-button-response,61,1,1,30,65           55           65           65           65           65,blueblueblueredblueblue,0  0  0  1  0  0,1,1
14064214,Button0Red,1,"{""Source1"": 0.50, ""Source2"": 0.55, ""Source3"": 0.65}",40,6,6,6,3770.90000009537,blue,0,6,1,js-scroll-button-response,63,0,1,31,50           55           65           55           65           65,blueredbluebluebluered,0  1  0  0  0  1,1,1
14064214,Button0Red,1,"{""Source1"": 0.50, ""Source2"": 0.55, ""Source3"": 0.65}",40,6,6,6,5398.70000004768,red,0,6,0,js-scroll-button-response,65,1,1,32,55           50           65           65           55           50,redredblueredredred,1  1  0  1  1  1,1,1
14064214,Button0Red,1,"{""Source1"": 0.50, ""Source2"": 0.55, ""Source3"": 0.65}",40,6,6,6,4326.5,blue,1,6,1,js-scroll-button-response,67,1,1,33,65           50           55           65           65           55,blueredblueblueredred,0  1  0  0  1  1,1,1
14064214,Button0Red,1,"{""Source1"": 0.50, ""Source2"": 0.55, ""Source3"": 0.65}",40,6,6,6,4076.10000014305,red,0,6,0,js-scroll-button-response,69,1,1,34,65           55           55           55           50           50,redredredblueredred,1  1  1  0  1  1,1,1
14064214,Button0Red,1,"{""Source1"": 0.50, ""Source2"": 0.55, ""Source3"": 0.65}",40,6,6,6,3932.39999985695,blue,1,6,1,js-scroll-button-response,71,1,1,35,50           50           65           55           50           50,redblueblueredblueblue,1  0  0  1  0  0,1,1
14064214,Button0Red,1,"{""Source1"": 0.50, ""Source2"": 0.55, ""Source3"": 0.65}",40,6,6,6,4070.59999990463,blue,1,6,1,js-scroll-button-response,73,1,1,36,65  50  50  65  65  65,blueblueredblueblueblue,0  0  1  0  0  0,1,1
14064214,Button0Red,1,"{""Source1"": 0.50, ""Source2"": 0.55, ""Source3"": 0.65}",40,6,6,6,3347.09999990463,red,1,6,0,js-scroll-button-response,75,0,1,37,50           55           55           55           65           65,bluebluebluebluebluered,0  0  0  0  0  1,1,1
14064214,Button0Red,1,"{""Source1"": 0.50, ""Source2"": 0.55, ""Source3"": 0.65}",40,6,6,6,3418.5,red,0,6,0,js-scroll-button-response,77,1,1,38,50           55           50           50           65           55,blueredblueredredred,0  1  0  1  1  1,1,1
14064214,Button0Red,1,"{""Source1"": 0.50, ""Source2"": 0.55, ""Source3"": 0.65}",40,6,6,6,3950.70000004768,blue,0,6,1,js-scroll-button-response,79,0,1,39,55           55           50           50           65           65,blueblueredredredblue,0  0  1  1  1  0,1,1
14064214,Button0Red,1,"{""Source1"": 0.50, ""Source2"": 0.55, ""Source3"": 0.65}",40,6,6,6,4457.40000009537,blue,0,6,1,js-scroll-button-response,81,0,1,40,50           65           55           50           55           50,redredredredredred,1  1  1  1  1  1,1,1
14064214,Button0Red,1,"{""Source1"": 0.50, ""Source2"": 0.55, ""Source3"": 0.65}",40,6,6,6,3828,blue,1,6,1,js-scroll-button-response,84,1,2,41,55           50           65           55           50           50,blueredblueblueredred,0  1  0  0  1  1,1,1
14064214,Button0Red,1,"{""Source1"": 0.50, ""Source2"": 0.55, ""Source3"": 0.65}",40,6,6,6,3748.79999995232,blue,1,6,1,js-scroll-button-response,86,1,2,42,55           65           55           50           65           65,blueblueredbluebluered,0  0  1  0  0  1,1,1
14064214,Button0Red,1,"{""Source1"": 0.50, ""Source2"": 0.55, ""Source3"": 0.65}",40,6,6,6,7538.30000019073,blue,1,6,1,js-scroll-button-response,88,1,2,43,65           55           50           50           65           50,redblueredbluebluered,1  0  1  0  0  1,1,1
14064214,Button0Red,1,"{""Source1"": 0.50, ""Source2"": 0.55, ""Source3"": 0.65}",40,6,6,6,3119.09999990463,blue,1,6,1,js-scroll-button-response,90,1,2,44,50           50           55           50           50           65,blueredredblueblueblue,0  1  1  0  0  0,1,1
14064214,Button0Red,1,"{""Source1"": 0.50, ""Source2"": 0.55, ""Source3"": 0.65}",40,6,6,6,3320.5,blue,1,6,1,js-scroll-button-response,92,1,2,45,65           55           50           65           55           50,blueredblueblueredblue,0  1  0  0  1  0,1,1
14064214,Button0Red,1,"{""Source1"": 0.50, ""Source2"": 0.55, ""Source3"": 0.65}",40,6,6,6,3401.09999990463,red,1,6,0,js-scroll-button-response,94,0,2,46,50           65           55           55           55           55,redblueblueredredblue,1  0  0  1  1  0,1,1
14064214,Button0Red,1,"{""Source1"": 0.50, ""Source2"": 0.55, ""Source3"": 0.65}",40,6,6,6,4014,red,0,6,0,js-scroll-button-response,96,1,2,47,55           55           50           50           55           55,redredredredbluered,1  1  1  1  0  1,1,1
14064214,Button0Red,1,"{""Source1"": 0.50, ""Source2"": 0.55, ""Source3"": 0.65}",40,6,6,6,3397.39999985695,blue,1,6,1,js-scroll-button-response,98,1,2,48,65           55           65           65           55           50,blueblueredblueblueblue,0  0  1  0  0  0,1,1
14064214,Button0Red,1,"{""Source1"": 0.50, ""Source2"": 0.55, ""Source3"": 0.65}",40,6,6,6,4568.40000009537,blue,1,6,1,js-scroll-button-response,100,1,2,49,65           55           65           50           55           50,blueblueredredbluered,0  0  1  1  0  1,1,1
14064214,Button0Red,1,"{""Source1"": 0.50, ""Source2"": 0.55, ""Source3"": 0.65}",40,6,6,6,5122.70000004768,blue,0,6,1,js-scroll-button-response,102,0,2,50,55           55           65           65           50           55,redblueredblueredred,1  0  1  0  1  1,1,1
14064214,Button0Red,1,"{""Source1"": 0.50, ""Source2"": 0.55, ""Source3"": 0.65}",40,6,6,6,3500.29999995232,blue,1,6,1,js-scroll-button-response,104,1,2,51,50           50           50           55           55           55,redblueblueredredblue,1  0  0  1  1  0,1,1
14064214,Button0Red,1,"{""Source1"": 0.50, ""Source2"": 0.55, ""Source3"": 0.65}",40,6,6,6,2993.69999980927,blue,1,6,1,js-scroll-button-response,106,1,2,52,55           50           55           50           65           65,redredblueredblueblue,1  1  0  1  0  0,1,1
14064214,Button0Red,1,"{""Source1"": 0.50, ""Source2"": 0.55, ""Source3"": 0.65}",40,6,6,6,3445.29999995232,red,0,6,0,js-scroll-button-response,108,1,2,53,55           65           55           55           65           65,blueredredredredred,0  1  1  1  1  1,1,1
14064214,Button0Red,1,"{""Source1"": 0.50, ""Source2"": 0.55, ""Source3"": 0.65}",40,6,6,6,3086,blue,1,6,1,js-scroll-button-response,110,1,2,54,55           65           55           65           50           55,blueblueblueblueredblue,0  0  0  0  1  0,1,1
14064214,Button0Red,1,"{""Source1"": 0.50, ""Source2"": 0.55, ""Source3"": 0.65}",40,6,6,6,3434.09999990463,red,0,6,0,js-scroll-button-response,112,1,2,55,50           50           50           55           50           65,blueredbluebluebluered,0  1  0  0  0  1,1,1
14064214,Button0Red,1,"{""Source1"": 0.50, ""Source2"": 0.55, ""Source3"": 0.65}",40,6,6,6,3297.40000009537,blue,0,6,1,js-scroll-button-response,114,0,2,56,55           50           65           65           50           55,blueblueredredbluered,0  0  1  1  0  1,1,1
14064214,Button0Red,1,"{""Source1"": 0.50, ""Source2"": 0.55, ""Source3"": 0.65}",40,6,6,6,3473.80000019073,red,0,6,0,js-scroll-button-response,116,1,2,57,50           55           50           50           55           65,redredredblueredred,1  1  1  0  1  1,1,1
14064214,Button0Red,1,"{""Source1"": 0.50, ""Source2"": 0.55, ""Source3"": 0.65}",40,6,6,6,3361.09999990463,blue,1,6,1,js-scroll-button-response,118,1,2,58,50           65           55           55           50           50,blueredblueredblueblue,0  1  0  1  0  0,1,1
14064214,Button0Red,1,"{""Source1"": 0.50, ""Source2"": 0.55, ""Source3"": 0.65}",40,6,6,6,4278.5,red,1,6,0,js-scroll-button-response,120,0,2,59,65           50           55           65           65           50,redblueredblueblueblue,1  0  1  0  0  0,1,1
14064214,Button0Red,1,"{""Source1"": 0.50, ""Source2"": 0.55, ""Source3"": 0.65}",40,6,6,6,3557.29999995232,red,1,6,0,js-scroll-button-response,122,0,2,60,55           65           65           65           50           50,blueredredredbluered,0  1  1  1  0  1,1,1
14064214,Button0Red,1,"{""Source1"": 0.50, ""Source2"": 0.55, ""Source3"": 0.65}",40,6,6,6,4119.09999990463,red,1,6,0,js-scroll-button-response,124,0,2,61,55           55           55           65           55           55,blueblueredblueblueblue,0  0  1  0  0  0,1,1
14064214,Button0Red,1,"{""Source1"": 0.50, ""Source2"": 0.55, ""Source3"": 0.65}",40,6,6,6,3128.40000009537,blue,1,6,1,js-scroll-button-response,126,1,2,62,50           65           65           50           55           65,blueblueblueredbluered,0  0  0  1  0  1,1,1
14064214,Button0Red,1,"{""Source1"": 0.50, ""Source2"": 0.55, ""Source3"": 0.65}",40,6,6,6,4587.20000004768,blue,0,6,1,js-scroll-button-response,128,0,2,63,55           55           65           65           55           50,blueblueredbluebluered,0  0  1  0  0  1,1,1
14064214,Button0Red,1,"{""Source1"": 0.50, ""Source2"": 0.55, ""Source3"": 0.65}",40,6,6,6,3757,red,1,6,0,js-scroll-button-response,130,0,2,64,55           55           65           50           65           50,blueredredbluebluered,0  1  1  0  0  1,1,1
14064214,Button0Red,1,"{""Source1"": 0.50, ""Source2"": 0.55, ""Source3"": 0.65}",40,6,6,6,3874,blue,1,6,1,js-scroll-button-response,132,1,2,65,55           55           50           65           50           65,blueblueblueblueblueblue,0  0  0  0  0  0,1,1
14064214,Button0Red,1,"{""Source1"": 0.50, ""Source2"": 0.55, ""Source3"": 0.65}",40,6,6,6,2666,blue,1,6,1,js-scroll-button-response,134,1,2,66,50  65  65  50  65  65,redredblueblueblueblue,1  1  0  0  0  0,1,1
14064214,Button0Red,1,"{""Source1"": 0.50, ""Source2"": 0.55, ""Source3"": 0.65}",40,6,6,6,3218.5,red,1,6,0,js-scroll-button-response,136,0,2,67,65           55           65           50           50           50,redblueredredblueblue,1  0  1  1  0  0,1,1
14064214,Button0Red,1,"{""Source1"": 0.50, ""Source2"": 0.55, ""Source3"": 0.65}",40,6,6,6,3635.79999995232,blue,0,6,1,js-scroll-button-response,138,0,2,68,50  65  50  65  50  65,blueredblueredredred,0  1  0  1  1  1,1,1
14064214,Button0Red,1,"{""Source1"": 0.50, ""Source2"": 0.55, ""Source3"": 0.65}",40,6,6,6,3280.79999995232,red,1,6,0,js-scroll-button-response,140,0,2,69,55           50           65           55           65           55,redblueblueredblueblue,1  0  0  1  0  0,1,1
14064214,Button0Red,1,"{""Source1"": 0.50, ""Source2"": 0.55, ""Source3"": 0.65}",40,6,6,6,3337.79999995232,blue,0,6,1,js-scroll-button-response,142,0,2,70,55           65           50           50           50           50,redblueredblueredred,1  0  1  0  1  1,1,1
14064214,Button0Red,1,"{""Source1"": 0.50, ""Source2"": 0.55, ""Source3"": 0.65}",40,6,6,6,3329.29999995232,red,1,6,0,js-scroll-button-response,144,0,2,71,65           55           65           50           65           65,redredredredbluered,1  1  1  1  0  1,1,1
14064214,Button0Red,1,"{""Source1"": 0.50, ""Source2"": 0.55, ""Source3"": 0.65}",40,6,6,6,3393,blue,1,6,1,js-scroll-button-response,146,1,2,72,55           55           65           55           65           55,blueredblueredblueblue,0  1  0  1  0  0,1,1
14064214,Button0Red,1,"{""Source1"": 0.50, ""Source2"": 0.55, ""Source3"": 0.65}",40,6,6,6,3534.59999990463,blue,0,6,1,js-scroll-button-response,148,0,2,73,50           50           55           50           55           65,redredblueblueredred,1  1  0  0  1  1,1,1
14064214,Button0Red,1,"{""Source1"": 0.50, ""Source2"": 0.55, ""Source3"": 0.65}",40,6,6,6,4011.39999985695,red,1,6,0,js-scroll-button-response,150,0,2,74,50           50           55           55           55           65,redblueblueredredblue,1  0  0  1  1  0,1,1
14064214,Button0Red,1,"{""Source1"": 0.50, ""Source2"": 0.55, ""Source3"": 0.65}",40,6,6,6,4234.29999995232,blue,0,6,1,js-scroll-button-response,152,0,2,75,50           50           55           55           50           50,redredredredbluered,1  1  1  1  0  1,1,1
14064214,Button0Red,1,"{""Source1"": 0.50, ""Source2"": 0.55, ""Source3"": 0.65}",40,6,6,6,8146.09999990463,red,0,6,0,js-scroll-button-response,154,1,2,76,65           55           65           65           65           65,redredredbluebluered,1  1  1  0  0  1,1,1
14064214,Button0Red,1,"{""Source1"": 0.50, ""Source2"": 0.55, ""Source3"": 0.65}",40,6,6,6,3516.79999995232,blue,1,6,1,js-scroll-button-response,156,1,2,77,50  50  65  50  50  65,blueredblueredredblue,0  1  0  1  1  0,1,1
14064214,Button0Red,1,"{""Source1"": 0.50, ""Source2"": 0.55, ""Source3"": 0.65}",40,6,6,6,4190.29999995232,blue,1,6,1,js-scroll-button-response,158,1,2,78,65  65  50  50  65  65,redblueredblueredblue,1  0  1  0  1  0,1,1
14064214,Button0Red,1,"{""Source1"": 0.50, ""Source2"": 0.55, ""Source3"": 0.65}",40,6,6,6,3930.29999995232,blue,1,6,1,js-scroll-button-response,160,1,2,79,55           50           65           65           55           65,blueblueblueredblueblue,0  0  0  1  0  0,1,1
14064214,Button0Red,1,"{""Source1"": 0.50, ""Source2"": 0.55, ""Source3"": 0.65}",40,6,6,6,3376.5,blue,1,6,1,js-scroll-button-response,162,1,2,80,65           50           55           55           55           65,blueredblueredblueblue,0  1  0  1  0  0,1,1
14064214,Button0Red,1,"{""Source1"": 0.50, ""Source2"": 0.55, ""Source3"": 0.65}",40,6,6,6,3676.70000004768,blue,1,6,1,js-scroll-button-response,165,1,3,81,65           55           65           50           55           55,blueblueredredredblue,0  0  1  1  1  0,1,1
14064214,Button0Red,1,"{""Source1"": 0.50, ""Source2"": 0.55, ""Source3"": 0.65}",40,6,6,6,3011.79999995232,blue,0,6,1,js-scroll-button-response,167,0,3,82,55           55           55           65           55           50,redredbluebluebluered,1  1  0  0  0  1,1,1
14064214,Button0Red,1,"{""Source1"": 0.50, ""Source2"": 0.55, ""Source3"": 0.65}",40,6,6,6,2732.20000004768,blue,1,6,1,js-scroll-button-response,169,1,3,83,65           65           55           65           55           65,redblueblueblueredblue,1  0  0  0  1  0,1,1
14064214,Button0Red,1,"{""Source1"": 0.50, ""Source2"": 0.55, ""Source3"": 0.65}",40,6,6,6,3517.29999995232,blue,0,6,1,js-scroll-button-response,171,0,3,84,50           55           50           50           50           55,blueredredblueredred,0  1  1  0  1  1,1,1
14064214,Button0Red,1,"{""Source1"": 0.50, ""Source2"": 0.55, ""Source3"": 0.65}",40,6,6,6,3390.39999985695,blue,1,6,1,js-scroll-button-response,173,1,3,85,65           50           55           65           55           65,blueblueredblueredblue,0  0  1  0  1  0,1,1
14064214,Button0Red,1,"{""Source1"": 0.50, ""Source2"": 0.55, ""Source3"": 0.65}",40,6,6,6,2812.79999995232,red,1,6,0,js-scroll-button-response,175,0,3,86,65           55           65           65           65           55,blueblueredblueredblue,0  0  1  0  1  0,1,1
14064214,Button0Red,1,"{""Source1"": 0.50, ""Source2"": 0.55, ""Source3"": 0.65}",40,6,6,6,3435.60000014305,red,0,6,0,js-scroll-button-response,177,1,3,87,50           50           55           50           65           65,redblueredblueredred,1  0  1  0  1  1,1,1
14064214,Button0Red,1,"{""Source1"": 0.50, ""Source2"": 0.55, ""Source3"": 0.65}",40,6,6,6,3586.90000009537,red,0,6,0,js-scroll-button-response,179,1,3,88,65           55           55           55           55           65,redredblueblueredred,1  1  0  0  1  1,1,1
14064214,Button0Red,1,"{""Source1"": 0.50, ""Source2"": 0.55, ""Source3"": 0.65}",40,6,6,6,4015.29999995232,blue,0,6,1,js-scroll-button-response,181,0,3,89,65           65           55           55           55           65,redredredblueredred,1  1  1  0  1  1,1,1
14064214,Button0Red,1,"{""Source1"": 0.50, ""Source2"": 0.55, ""Source3"": 0.65}",40,6,6,6,5126.79999995232,blue,1,6,1,js-scroll-button-response,183,1,3,90,55           50           65           65           55           50,redredblueredblueblue,1  1  0  1  0  0,1,1
14064214,Button0Red,1,"{""Source1"": 0.50, ""Source2"": 0.55, ""Source3"": 0.65}",40,6,6,6,3901.59999990463,blue,0,6,1,js-scroll-button-response,185,0,3,91,50           65           50           55           55           55,redblueredredredred,1  0  1  1  1  1,1,1
14064214,Button0Red,1,"{""Source1"": 0.50, ""Source2"": 0.55, ""Source3"": 0.65}",40,6,6,6,4085.09999990463,red,0,6,0,js-scroll-button-response,187,1,3,92,65           50           55           65           65           65,redredredredredred,1  1  1  1  1  1,1,1
14064214,Button0Red,1,"{""Source1"": 0.50, ""Source2"": 0.55, ""Source3"": 0.65}",40,6,6,6,3764.5,blue,1,6,1,js-scroll-button-response,189,1,3,93,55           50           50           50           55           55,blueredredredredblue,0  1  1  1  1  0,1,1
14064214,Button0Red,1,"{""Source1"": 0.50, ""Source2"": 0.55, ""Source3"": 0.65}",40,6,6,6,3946.69999980927,red,0,6,0,js-scroll-button-response,191,1,3,94,50           50           50           65           50           55,redredblueredbluered,1  1  0  1  0  1,1,1
14064214,Button0Red,1,"{""Source1"": 0.50, ""Source2"": 0.55, ""Source3"": 0.65}",40,6,6,6,3676.60000014305,red,0,6,0,js-scroll-button-response,193,1,3,95,50  65  65  65  50  65,redredredbluebluered,1  1  1  0  0  1,1,1
14064214,Button0Red,1,"{""Source1"": 0.50, ""Source2"": 0.55, ""Source3"": 0.65}",40,6,6,6,3765,red,0,6,0,js-scroll-button-response,195,1,3,96,50           55           50           55           50           55,redblueblueblueredred,1  0  0  0  1  1,1,1
14064214,Button0Red,1,"{""Source1"": 0.50, ""Source2"": 0.55, ""Source3"": 0.65}",40,6,6,6,3811.60000014305,blue,1,6,1,js-scroll-button-response,197,1,3,97,55           65           50           65           55           50,redblueblueredbluered,1  0  0  1  0  1,1,1
14064214,Button0Red,1,"{""Source1"": 0.50, ""Source2"": 0.55, ""Source3"": 0.65}",40,6,6,6,3538.89999985695,blue,1,6,1,js-scroll-button-response,199,1,3,98,50           55           65           65           55           55,blueblueblueblueblueblue,0  0  0  0  0  0,1,1
14064214,Button0Red,1,"{""Source1"": 0.50, ""Source2"": 0.55, ""Source3"": 0.65}",40,6,6,6,3626.70000004768,blue,1,6,1,js-scroll-button-response,201,1,3,99,65           65           65           55           55           55,blueblueredredredblue,0  0  1  1  1  0,1,1
14064214,Button0Red,1,"{""Source1"": 0.50, ""Source2"": 0.55, ""Source3"": 0.65}",40,6,6,6,6814.19999980927,blue,1,6,1,js-scroll-button-response,203,1,3,100,55           55           65           65           50           55,redblueblueblueblueblue,1  0  0  0  0  0,1,1
14064214,Button0Red,1,"{""Source1"": 0.50, ""Source2"": 0.55, ""Source3"": 0.65}",40,6,6,6,3712.80000019073,red,0,6,0,js-scroll-button-response,205,1,3,101,55           55           50           65           50           55,redredblueredbluered,1  1  0  1  0  1,1,1
14064214,Button0Red,1,"{""Source1"": 0.50, ""Source2"": 0.55, ""Source3"": 0.65}",40,6,6,6,13852.6999998093,blue,0,6,1,js-scroll-button-response,207,0,3,102,55           55           55           50           55           65,redredredblueredred,1  1  1  0  1  1,1,1
14064214,Button0Red,1,"{""Source1"": 0.50, ""Source2"": 0.55, ""Source3"": 0.65}",40,6,6,6,3906.20000004768,blue,1,6,1,js-scroll-button-response,209,1,3,103,50           50           65           65           55           50,blueredblueblueblueblue,0  1  0  0  0  0,1,1
14064214,Button0Red,1,"{""Source1"": 0.50, ""Source2"": 0.55, ""Source3"": 0.65}",40,6,6,6,3747.59999990463,red,0,6,0,js-scroll-button-response,211,1,3,104,65           55           65           65           65           50,redblueredblueredred,1  0  1  0  1  1,1,1
14064214,Button0Red,1,"{""Source1"": 0.50, ""Source2"": 0.55, ""Source3"": 0.65}",40,6,6,6,3739.40000009537,red,0,6,0,js-scroll-button-response,213,1,3,105,55           65           50           65           55           50,blueblueredredredred,0  0  1  1  1  1,1,1
14064214,Button0Red,1,"{""Source1"": 0.50, ""Source2"": 0.55, ""Source3"": 0.65}",40,6,6,6,3678.70000004768,blue,1,6,1,js-scroll-button-response,215,1,3,106,55           55           55           65           55           50,redredblueblueredblue,1  1  0  0  1  0,1,1
14064214,Button0Red,1,"{""Source1"": 0.50, ""Source2"": 0.55, ""Source3"": 0.65}",40,6,6,6,3740.70000004768,blue,1,6,1,js-scroll-button-response,217,1,3,107,50           50           65           65           65           55,blueredbluebluebluered,0  1  0  0  0  1,1,1
14064214,Button0Red,1,"{""Source1"": 0.50, ""Source2"": 0.55, ""Source3"": 0.65}",40,6,6,6,3313.60000014305,blue,1,6,1,js-scroll-button-response,219,1,3,108,50           50           50           55           65           50,blueredblueblueblueblue,0  1  0  0  0  0,1,1
14064214,Button0Red,1,"{""Source1"": 0.50, ""Source2"": 0.55, ""Source3"": 0.65}",40,6,6,6,3724.20000004768,blue,1,6,1,js-scroll-button-response,221,1,3,109,50           65           55           50           50           65,redredblueredblueblue,1  1  0  1  0  0,1,1
14064214,Button0Red,1,"{""Source1"": 0.50, ""Source2"": 0.55, ""Source3"": 0.65}",40,6,6,6,3488.89999985695,red,0,6,0,js-scroll-button-response,223,1,3,110,55           55           55           50           65           65,blueredredblueredred,0  1  1  0  1  1,1,1
14064214,Button0Red,1,"{""Source1"": 0.50, ""Source2"": 0.55, ""Source3"": 0.65}",40,6,6,6,3636.30000019073,blue,0,6,1,js-scroll-button-response,225,0,3,111,55           65           55           55           65           55,blueblueblueredredred,0  0  0  1  1  1,1,1
14064214,Button0Red,1,"{""Source1"": 0.50, ""Source2"": 0.55, ""Source3"": 0.65}",40,6,6,6,8737.09999990463,blue,0,6,1,js-scroll-button-response,227,0,3,112,55           50           55           55           50           55,blueredbluebluebluered,0  1  0  0  0  1,1,1
14064214,Button0Red,1,"{""Source1"": 0.50, ""Source2"": 0.55, ""Source3"": 0.65}",40,6,6,6,10397.0999999046,blue,1,6,1,js-scroll-button-response,229,1,3,113,50           55           50           65           55           55,redredredredblueblue,1  1  1  1  0  0,1,1
14064214,Button0Red,1,"{""Source1"": 0.50, ""Source2"": 0.55, ""Source3"": 0.65}",40,6,6,6,4075.89999985695,red,0,6,0,js-scroll-button-response,231,1,3,114,50           65           65           65           55           55,blueredredbluebluered,0  1  1  0  0  1,1,1
14064214,Button0Red,1,"{""Source1"": 0.50, ""Source2"": 0.55, ""Source3"": 0.65}",40,6,6,6,4736.19999980927,blue,1,6,1,js-scroll-button-response,233,1,3,115,50           55           65           55           65           65,redblueblueblueblueblue,1  0  0  0  0  0,1,1
14064214,Button0Red,1,"{""Source1"": 0.50, ""Source2"": 0.55, ""Source3"": 0.65}",40,6,6,6,4013.40000009537,red,1,6,0,js-scroll-button-response,235,0,3,116,50           50           50           55           65           55,blueblueredredredblue,0  0  1  1  1  0,1,1
14064214,Button0Red,1,"{""Source1"": 0.50, ""Source2"": 0.55, ""Source3"": 0.65}",40,6,6,6,3343.20000004768,blue,0,6,1,js-scroll-button-response,237,0,3,117,65           65           55           65           65           50,blueblueredblueredred,0  0  1  0  1  1,1,1
14064214,Button0Red,1,"{""Source1"": 0.50, ""Source2"": 0.55, ""Source3"": 0.65}",40,6,6,6,3016.90000009537,blue,0,6,1,js-scroll-button-response,239,0,3,118,55           65           65           55           50           65,redredredbluebluered,1  1  1  0  0  1,1,1
14064214,Button0Red,1,"{""Source1"": 0.50, ""Source2"": 0.55, ""Source3"": 0.65}",40,6,6,6,3794.79999995232,red,0,6,0,js-scroll-button-response,241,1,3,119,65           55           65           65           65           50,blueredredredbluered,0  1  1  1  0  1,1,1
14064214,Button0Red,1,"{""Source1"": 0.50, ""Source2"": 0.55, ""Source3"": 0.65}",40,6,6,6,3874.60000014305,blue,1,6,1,js-scroll-button-response,243,1,3,120,65           55           50           50           65           50,blueblueblueredblueblue,0  0  0  1  0  0,1,1
14064214,Button0Red,1,"{""Source1"": 0.50, ""Source2"": 0.55, ""Source3"": 0.65}",40,6,6,6,3454.90000009537,blue,1,6,1,js-scroll-button-response,246,1,4,121,50           50           55           55           65           65,blueredblueblueblueblue,0  1  0  0  0  0,1,1
14064214,Button0Red,1,"{""Source1"": 0.50, ""Source2"": 0.55, ""Source3"": 0.65}",40,6,6,6,3332.5,red,0,6,0,js-scroll-button-response,248,1,4,122,65           50           55           65           55           65,blueblueblueredbluered,0  0  0  1  0  1,1,1
14064214,Button0Red,1,"{""Source1"": 0.50, ""Source2"": 0.55, ""Source3"": 0.65}",40,6,6,6,3602,blue,0,6,1,js-scroll-button-response,250,0,4,123,50           50           50           65           55           50,redblueredbluebluered,1  0  1  0  0  1,1,1
14064214,Button0Red,1,"{""Source1"": 0.50, ""Source2"": 0.55, ""Source3"": 0.65}",40,6,6,6,3980.59999990463,red,0,6,0,js-scroll-button-response,252,1,4,124,65           50           65           55           55           50,blueblueredredbluered,0  0  1  1  0  1,1,1
14064214,Button0Red,1,"{""Source1"": 0.50, ""Source2"": 0.55, ""Source3"": 0.65}",40,6,6,6,3369.90000009537,red,0,6,0,js-scroll-button-response,254,1,4,125,65           65           50           55           55           55,redredblueredbluered,1  1  0  1  0  1,1,1
14064214,Button0Red,1,"{""Source1"": 0.50, ""Source2"": 0.55, ""Source3"": 0.65}",40,6,6,6,3631.70000004768,blue,1,6,1,js-scroll-button-response,256,1,4,126,50           55           50           65           65           55,blueredblueblueredblue,0  1  0  0  1  0,1,1
14064214,Button0Red,1,"{""Source1"": 0.50, ""Source2"": 0.55, ""Source3"": 0.65}",40,6,6,6,3385.10000014305,blue,1,6,1,js-scroll-button-response,258,1,4,127,65           50           50           65           55           65,redblueblueblueblueblue,1  0  0  0  0  0,1,1
14064214,Button0Red,1,"{""Source1"": 0.50, ""Source2"": 0.55, ""Source3"": 0.65}",40,6,6,6,3153.29999995232,blue,1,6,1,js-scroll-button-response,260,1,4,128,65  50  50  65  65  50,blueblueredblueredblue,0  0  1  0  1  0,1,1
14064214,Button0Red,1,"{""Source1"": 0.50, ""Source2"": 0.55, ""Source3"": 0.65}",40,6,6,6,3493,red,0,6,0,js-scroll-button-response,262,1,4,129,65           55           65           65           55           55,redredredblueredred,1  1  1  0  1  1,1,1
14064214,Button0Red,1,"{""Source1"": 0.50, ""Source2"": 0.55, ""Source3"": 0.65}",40,6,6,6,3549.39999985695,blue,0,6,1,js-scroll-button-response,264,0,4,130,65           65           50           55           50           55,redblueblueredbluered,1  0  0  1  0  1,1,1
14064214,Button0Red,1,"{""Source1"": 0.50, ""Source2"": 0.55, ""Source3"": 0.65}",40,6,6,6,3171.59999990463,blue,1,6,1,js-scroll-button-response,266,1,4,131,55           55           65           65           55           50,redbluebluebluebluered,1  0  0  0  0  1,1,1
14064214,Button0Red,1,"{""Source1"": 0.50, ""Source2"": 0.55, ""Source3"": 0.65}",40,6,6,6,3468.89999985695,blue,0,6,1,js-scroll-button-response,268,0,4,132,50           50           55           65           50           65,redredblueredbluered,1  1  0  1  0  1,1,1
14064214,Button0Red,1,"{""Source1"": 0.50, ""Source2"": 0.55, ""Source3"": 0.65}",40,6,6,6,3366.29999995232,blue,1,6,1,js-scroll-button-response,270,1,4,133,55           55           65           50           50           65,blueredredredblueblue,0  1  1  1  0  0,1,1
14064214,Button0Red,1,"{""Source1"": 0.50, ""Source2"": 0.55, ""Source3"": 0.65}",40,6,6,6,4020.29999995232,blue,0,6,1,js-scroll-button-response,272,0,4,134,65           55           65           50           65           50,redblueredredredblue,1  0  1  1  1  0,1,1
14064214,Button0Red,1,"{""Source1"": 0.50, ""Source2"": 0.55, ""Source3"": 0.65}",40,6,6,6,3477.29999995232,red,1,6,0,js-scroll-button-response,274,0,4,135,50           50           55           65           55           65,blueredblueblueredblue,0  1  0  0  1  0,1,1
14064214,Button0Red,1,"{""Source1"": 0.50, ""Source2"": 0.55, ""Source3"": 0.65}",40,6,6,6,3700.5,blue,1,6,1,js-scroll-button-response,276,1,4,136,55           55           55           50           50           50,redblueblueblueblueblue,1  0  0  0  0  0,1,1
14064214,Button0Red,1,"{""Source1"": 0.50, ""Source2"": 0.55, ""Source3"": 0.65}",40,6,6,6,3764.09999990463,red,0,6,0,js-scroll-button-response,278,1,4,137,50           55           65           55           50           65,blueredredredbluered,0  1  1  1  0  1,1,1
14064214,Button0Red,1,"{""Source1"": 0.50, ""Source2"": 0.55, ""Source3"": 0.65}",40,6,6,6,3733.5,red,1,6,0,js-scroll-button-response,280,0,4,138,55           65           50           50           55           65,blueredbluebluebluered,0  1  0  0  0  1,1,1
14064214,Button0Red,1,"{""Source1"": 0.50, ""Source2"": 0.55, ""Source3"": 0.65}",40,6,6,6,4005.39999985695,blue,1,6,1,js-scroll-button-response,282,1,4,139,55           65           65           65           50           55,redblueblueblueblueblue,1  0  0  0  0  0,1,1
14064214,Button0Red,1,"{""Source1"": 0.50, ""Source2"": 0.55, ""Source3"": 0.65}",40,6,6,6,4228.5,blue,1,6,1,js-scroll-button-response,284,1,4,140,65           65           50           55           50           55,blueredblueblueredblue,0  1  0  0  1  0,1,1
