ParticipantPrivateID,randomiser_475f,ResponseButtonOrder,Sources,Trials_perBlock_,Blocks,MinimumSamples,MaximumSamples,RT,Stimulus,Response,NoOfStimuli,CorrectResponse,TrialType,TrialIndex,Accuracy,Block,TrialNumber,Sample_Reliability,Sample_Color,Sample_NumColor,Prior_Belief,Awareness
11696498,Button0Red,1,"{""Source1"": 0.50, ""Source2"": 0.55, ""Source3"": 0.65}",40,6,6,6,6103.19999999925,red,1,6,0,js-scroll-button-response,3,0,1,1,50           55           50           50           65           65,blueblueredblueblueblue,0  0  1  0  0  0,2,2
11696498,Button0Red,1,"{""Source1"": 0.50, ""Source2"": 0.55, ""Source3"": 0.65}",40,6,6,6,6754.80000000075,blue,1,6,1,js-scroll-button-response,5,1,1,2,55           55           65           50           65           65,blueredblueredredblue,0  1  0  1  1  0,2,2
11696498,Button0Red,1,"{""Source1"": 0.50, ""Source2"": 0.55, ""Source3"": 0.65}",40,6,6,6,15456.1999999993,red,1,6,0,js-scroll-button-response,7,0,1,3,65           50           50           65           65           55,redredredblueblueblue,1  1  1  0  0  0,2,2
11696498,Button0Red,1,"{""Source1"": 0.50, ""Source2"": 0.55, ""Source3"": 0.65}",40,6,6,6,31089.6999999993,blue,0,6,1,js-scroll-button-response,9,0,1,4,55           65           55           65           50           55,blueredblueblueredred,0  1  0  0  1  1,2,2
11696498,Button0Red,1,"{""Source1"": 0.50, ""Source2"": 0.55, ""Source3"": 0.65}",40,6,6,6,6769.79999999702,blue,1,6,1,js-scroll-button-response,11,1,1,5,65           65           55           55           65           55,redblueblueredblueblue,1  0  0  1  0  0,2,2
11696498,Button0Red,1,"{""Source1"": 0.50, ""Source2"": 0.55, ""Source3"": 0.65}",40,6,6,6,6107.69999999925,red,0,6,0,js-scroll-button-response,13,1,1,6,65           65           50           55           50           50,blueredredblueredred,0  1  1  0  1  1,2,2
11696498,Button0Red,1,"{""Source1"": 0.50, ""Source2"": 0.55, ""Source3"": 0.65}",40,6,6,6,6127.69999999925,red,0,6,0,js-scroll-button-response,15,1,1,7,50           50           50           65           50           55,blueredredredbluered,0  1  1  1  0  1,2,2
11696498,Button0Red,1,"{""Source1"": 0.50, ""Source2"": 0.55, ""Source3"": 0.65}",40,6,6,6,11639.0999999978,blue,1,6,1,js-scroll-button-response,17,1,1,8,65           65           55           55           65           55,blueredredblueblueblue,0  1  1  0  0  0,2,2
11696498,Button0Red,1,"{""Source1"": 0.50, ""Source2"": 0.55, ""Source3"": 0.65}",40,6,6,6,10887.1999999993,red,1,6,0,js-scroll-button-response,19,0,1,9,50           50           50           50           55           50,redbluebluebluebluered,1  0  0  0  0  1,2,2
11696498,Button0Red,1,"{""Source1"": 0.50, ""Source2"": 0.55, ""Source3"": 0.65}",40,6,6,6,6778.90000000224,red,0,6,0,js-scroll-button-response,21,1,1,10,65           65           55           55           65           65,blueredredblueredred,0  1  1  0  1  1,2,2
11696498,Button0Red,1,"{""Source1"": 0.50, ""Source2"": 0.55, ""Source3"": 0.65}",40,6,6,6,6699.29999999702,red,0,6,0,js-scroll-button-response,23,1,1,11,55           50           65           55           50           55,redredredredbluered,1  1  1  1  0  1,2,2
11696498,Button0Red,1,"{""Source1"": 0.50, ""Source2"": 0.55, ""Source3"": 0.65}",40,6,6,6,20277.3000000007,red,1,6,0,js-scroll-button-response,25,0,1,12,55           50           55           55           55           50,blueredblueredblueblue,0  1  0  1  0  0,2,2
11696498,Button0Red,1,"{""Source1"": 0.50, ""Source2"": 0.55, ""Source3"": 0.65}",40,6,6,6,5949.19999999925,red,1,6,0,js-scroll-button-response,27,0,1,13,55           55           50           65           65           50,blueblueblueblueredred,0  0  0  0  1  1,2,2
11696498,Button0Red,1,"{""Source1"": 0.50, ""Source2"": 0.55, ""Source3"": 0.65}",40,6,6,6,32992.1999999993,red,1,6,0,js-scroll-button-response,29,0,1,14,55           55           50           65           55           55,redredblueblueredblue,1  1  0  0  1  0,2,2
11696498,Button0Red,1,"{""Source1"": 0.50, ""Source2"": 0.55, ""Source3"": 0.65}",40,6,6,6,8607.69999999925,blue,0,6,1,js-scroll-button-response,31,0,1,15,50           65           55           55           50           50,blueredredbluebluered,0  1  1  0  0  1,2,2
11696498,Button0Red,1,"{""Source1"": 0.50, ""Source2"": 0.55, ""Source3"": 0.65}",40,6,6,6,7860,blue,1,6,1,js-scroll-button-response,33,1,1,16,50  50  50  65  50  65,blueredredblueblueblue,0  1  1  0  0  0,2,2
11696498,Button0Red,1,"{""Source1"": 0.50, ""Source2"": 0.55, ""Source3"": 0.65}",40,6,6,6,5560.10000000149,red,0,6,0,js-scroll-button-response,35,1,1,17,65           50           55           55           65           65,redredblueredredred,1  1  0  1  1  1,2,2
11696498,Button0Red,1,"{""Source1"": 0.50, ""Source2"": 0.55, ""Source3"": 0.65}",40,6,6,6,8443.40000000224,blue,1,6,1,js-scroll-button-response,37,1,1,18,65           55           50           50           65           50,redredredredblueblue,1  1  1  1  0  0,2,2
11696498,Button0Red,1,"{""Source1"": 0.50, ""Source2"": 0.55, ""Source3"": 0.65}",40,6,6,6,8348.90000000224,red,1,6,0,js-scroll-button-response,39,0,1,19,65           55           65           55           50           50,blueblueblueblueblueblue,0  0  0  0  0  0,2,2
11696498,Button0Red,1,"{""Source1"": 0.50, ""Source2"": 0.55, ""Source3"": 0.65}",40,6,6,6,4679.59999999776,red,0,6,0,js-scroll-button-response,41,1,1,20,50           50           50           55           55           50,redredredredredred,1  1  1  1  1  1,2,2
11696498,Button0Red,1,"{""Source1"": 0.50, ""Source2"": 0.55, ""Source3"": 0.65}",40,6,6,6,6084.80000000075,blue,0,6,1,js-scroll-button-response,43,0,1,21,65           50           55           55           65           50,blueblueredredredred,0  0  1  1  1  1,2,2
11696498,Button0Red,1,"{""Source1"": 0.50, ""Source2"": 0.55, ""Source3"": 0.65}",40,6,6,6,5292.60000000149,red,1,6,0,js-scroll-button-response,45,0,1,22,65           50           50           50           50           55,blueblueblueblueredred,0  0  0  0  1  1,2,2
11696498,Button0Red,1,"{""Source1"": 0.50, ""Source2"": 0.55, ""Source3"": 0.65}",40,6,6,6,4888.19999999925,red,0,6,0,js-scroll-button-response,47,1,1,23,65  50  65  50  50  50,redblueredredbluered,1  0  1  1  0  1,2,2
11696498,Button0Red,1,"{""Source1"": 0.50, ""Source2"": 0.55, ""Source3"": 0.65}",40,6,6,6,9867.69999999925,blue,1,6,1,js-scroll-button-response,49,1,1,24,55           50           55           65           50           65,blueredblueredblueblue,0  1  0  1  0  0,2,2
11696498,Button0Red,1,"{""Source1"": 0.50, ""Source2"": 0.55, ""Source3"": 0.65}",40,6,6,6,5327.70000000298,red,0,6,0,js-scroll-button-response,51,1,1,25,65           65           55           55           65           50,blueredredblueredred,0  1  1  0  1  1,2,2
11696498,Button0Red,1,"{""Source1"": 0.50, ""Source2"": 0.55, ""Source3"": 0.65}",40,6,6,6,20435.6000000015,red,0,6,0,js-scroll-button-response,53,1,1,26,50           55           65           50           55           55,blueredredredredblue,0  1  1  1  1  0,2,2
11696498,Button0Red,1,"{""Source1"": 0.50, ""Source2"": 0.55, ""Source3"": 0.65}",40,6,6,6,12023.3999999985,red,0,6,0,js-scroll-button-response,55,1,1,27,65           50           55           65           65           65,redblueredredbluered,1  0  1  1  0  1,2,2
11696498,Button0Red,1,"{""Source1"": 0.50, ""Source2"": 0.55, ""Source3"": 0.65}",40,6,6,6,9633,red,1,6,0,js-scroll-button-response,57,0,1,28,65           50           65           50           50           55,redblueblueblueblueblue,1  0  0  0  0  0,2,2
11696498,Button0Red,1,"{""Source1"": 0.50, ""Source2"": 0.55, ""Source3"": 0.65}",40,6,6,6,38496,red,1,6,0,js-scroll-button-response,59,0,1,29,55           65           65           65           65           55,redblueredblueredblue,1  0  1  0  1  0,2,2
11696498,Button0Red,1,"{""Source1"": 0.50, ""Source2"": 0.55, ""Source3"": 0.65}",40,6,6,6,8685.10000000149,red,0,6,0,js-scroll-button-response,61,1,1,30,65           50           55           55           50           55,redblueredredredred,1  0  1  1  1  1,2,2
11696498,Button0Red,1,"{""Source1"": 0.50, ""Source2"": 0.55, ""Source3"": 0.65}",40,6,6,6,5188.90000000224,red,0,6,0,js-scroll-button-response,63,1,1,31,50           65           50           55           55           65,blueblueblueredredred,0  0  0  1  1  1,2,2
11696498,Button0Red,1,"{""Source1"": 0.50, ""Source2"": 0.55, ""Source3"": 0.65}",40,6,6,6,5167.60000000149,red,1,6,0,js-scroll-button-response,65,0,1,32,65           55           55           55           50           50,blueblueredblueblueblue,0  0  1  0  0  0,2,2
11696498,Button0Red,1,"{""Source1"": 0.50, ""Source2"": 0.55, ""Source3"": 0.65}",40,6,6,6,5895.89999999851,red,0,6,0,js-scroll-button-response,67,1,1,33,55           50           55           65           65           55,redredredredredblue,1  1  1  1  1  0,2,2
11696498,Button0Red,1,"{""Source1"": 0.50, ""Source2"": 0.55, ""Source3"": 0.65}",40,6,6,6,5069.69999999925,blue,1,6,1,js-scroll-button-response,69,1,1,34,50           50           65           55           65           65,redredblueblueblueblue,1  1  0  0  0  0,2,2
11696498,Button0Red,1,"{""Source1"": 0.50, ""Source2"": 0.55, ""Source3"": 0.65}",40,6,6,6,4995.69999999925,blue,1,6,1,js-scroll-button-response,71,1,1,35,65           55           50           50           55           50,blueblueblueredredred,0  0  0  1  1  1,2,2
11696498,Button0Red,1,"{""Source1"": 0.50, ""Source2"": 0.55, ""Source3"": 0.65}",40,6,6,6,6352.69999999925,blue,0,6,1,js-scroll-button-response,73,0,1,36,55           55           55           50           55           50,redblueblueblueredred,1  0  0  0  1  1,2,2
11696498,Button0Red,1,"{""Source1"": 0.50, ""Source2"": 0.55, ""Source3"": 0.65}",40,6,6,6,4639.5,red,1,6,0,js-scroll-button-response,75,0,1,37,55           65           55           55           65           65,redblueredblueredblue,1  0  1  0  1  0,2,2
11696498,Button0Red,1,"{""Source1"": 0.50, ""Source2"": 0.55, ""Source3"": 0.65}",40,6,6,6,4890.39999999851,blue,0,6,1,js-scroll-button-response,77,0,1,38,50           55           55           55           65           55,redblueredblueredblue,1  0  1  0  1  0,2,2
11696498,Button0Red,1,"{""Source1"": 0.50, ""Source2"": 0.55, ""Source3"": 0.65}",40,6,6,6,15196.700000003,blue,1,6,1,js-scroll-button-response,79,1,1,39,50           55           55           50           55           50,redblueblueredredred,1  0  0  1  1  1,2,2
11696498,Button0Red,1,"{""Source1"": 0.50, ""Source2"": 0.55, ""Source3"": 0.65}",40,6,6,6,5305.59999999776,red,0,6,0,js-scroll-button-response,81,1,1,40,65  65  50  50  50  50,redblueredblueredred,1  0  1  0  1  1,2,2
11696498,Button0Red,1,"{""Source1"": 0.50, ""Source2"": 0.55, ""Source3"": 0.65}",40,6,6,6,11260,blue,0,6,1,js-scroll-button-response,84,0,2,41,50           55           55           55           50           55,blueredblueredredred,0  1  0  1  1  1,2,2
11696498,Button0Red,1,"{""Source1"": 0.50, ""Source2"": 0.55, ""Source3"": 0.65}",40,6,6,6,5005.30000000075,red,0,6,0,js-scroll-button-response,86,1,2,42,55           50           65           50           50           50,redblueredredredblue,1  0  1  1  1  0,2,2
11696498,Button0Red,1,"{""Source1"": 0.50, ""Source2"": 0.55, ""Source3"": 0.65}",40,6,6,6,5905.5,red,0,6,0,js-scroll-button-response,88,1,2,43,55           65           50           50           65           55,blueredredredbluered,0  1  1  1  0  1,2,2
11696498,Button0Red,1,"{""Source1"": 0.50, ""Source2"": 0.55, ""Source3"": 0.65}",40,6,6,6,4050.19999999925,red,0,6,0,js-scroll-button-response,90,1,2,44,50           50           50           55           50           65,blueblueblueredbluered,0  0  0  1  0  1,2,2
11696498,Button0Red,1,"{""Source1"": 0.50, ""Source2"": 0.55, ""Source3"": 0.65}",40,6,6,6,7423.40000000224,blue,0,6,1,js-scroll-button-response,92,0,2,45,55           65           65           55           65           65,blueredredredredblue,0  1  1  1  1  0,2,2
11696498,Button0Red,1,"{""Source1"": 0.50, ""Source2"": 0.55, ""Source3"": 0.65}",40,6,6,6,3981.40000000224,blue,1,6,1,js-scroll-button-response,94,1,2,46,55           55           50           55           50           65,redredredredblueblue,1  1  1  1  0  0,2,2
11696498,Button0Red,1,"{""Source1"": 0.50, ""Source2"": 0.55, ""Source3"": 0.65}",40,6,6,6,4336.40000000224,red,0,6,0,js-scroll-button-response,96,1,2,47,65           55           55           65           50           65,redredblueredbluered,1  1  0  1  0  1,2,2
11696498,Button0Red,1,"{""Source1"": 0.50, ""Source2"": 0.55, ""Source3"": 0.65}",40,6,6,6,21977.6000000015,red,0,6,0,js-scroll-button-response,98,1,2,48,65           50           55           65           50           55,redredredredbluered,1  1  1  1  0  1,2,2
11696498,Button0Red,1,"{""Source1"": 0.50, ""Source2"": 0.55, ""Source3"": 0.65}",40,6,6,6,24213.1000000015,red,0,6,0,js-scroll-button-response,100,1,2,49,50           50           50           65           65           55,redredblueredredred,1  1  0  1  1  1,2,2
11696498,Button0Red,1,"{""Source1"": 0.50, ""Source2"": 0.55, ""Source3"": 0.65}",40,6,6,6,4636.09999999776,red,0,6,0,js-scroll-button-response,102,1,2,50,55           50           65           50           55           50,blueredblueredbluered,0  1  0  1  0  1,2,2
11696498,Button0Red,1,"{""Source1"": 0.50, ""Source2"": 0.55, ""Source3"": 0.65}",40,6,6,6,3868.10000000149,red,0,6,0,js-scroll-button-response,104,1,2,51,65           65           55           50           55           55,blueredblueredredred,0  1  0  1  1  1,2,2
11696498,Button0Red,1,"{""Source1"": 0.50, ""Source2"": 0.55, ""Source3"": 0.65}",40,6,6,6,4037.69999999925,red,1,6,0,js-scroll-button-response,106,0,2,52,50           55           50           65           55           65,blueblueblueblueredblue,0  0  0  0  1  0,2,2
11696498,Button0Red,1,"{""Source1"": 0.50, ""Source2"": 0.55, ""Source3"": 0.65}",40,6,6,6,4192.5,blue,1,6,1,js-scroll-button-response,108,1,2,53,55           65           50           55           65           50,redredblueblueblueblue,1  1  0  0  0  0,2,2
11696498,Button0Red,1,"{""Source1"": 0.50, ""Source2"": 0.55, ""Source3"": 0.65}",40,6,6,6,4261.29999999702,red,1,6,0,js-scroll-button-response,110,0,2,54,50           65           50           55           55           55,blueredredredblueblue,0  1  1  1  0  0,2,2
11696498,Button0Red,1,"{""Source1"": 0.50, ""Source2"": 0.55, ""Source3"": 0.65}",40,6,6,6,6439.40000000224,blue,1,6,1,js-scroll-button-response,112,1,2,55,50           50           55           65           65           55,redredredbluebluered,1  1  1  0  0  1,2,2
11696498,Button0Red,1,"{""Source1"": 0.50, ""Source2"": 0.55, ""Source3"": 0.65}",40,6,6,6,5194.90000000224,red,1,6,0,js-scroll-button-response,114,0,2,56,50           65           55           55           55           65,redredblueblueredblue,1  1  0  0  1  0,2,2
11696498,Button0Red,1,"{""Source1"": 0.50, ""Source2"": 0.55, ""Source3"": 0.65}",40,6,6,6,5323.5,red,1,6,0,js-scroll-button-response,116,0,2,57,50  50  65  65  65  65,blueblueredblueredblue,0  0  1  0  1  0,2,2
11696498,Button0Red,1,"{""Source1"": 0.50, ""Source2"": 0.55, ""Source3"": 0.65}",40,6,6,6,4791.80000000075,red,0,6,0,js-scroll-button-response,118,1,2,58,55           55           55           65           65           65,redredredredredblue,1  1  1  1  1  0,2,2
11696498,Button0Red,1,"{""Source1"": 0.50, ""Source2"": 0.55, ""Source3"": 0.65}",40,6,6,6,4928.60000000149,blue,1,6,1,js-scroll-button-response,120,1,2,59,65           55           50           55           65           55,redredredbluebluered,1  1  1  0  0  1,2,2
11696498,Button0Red,1,"{""Source1"": 0.50, ""Source2"": 0.55, ""Source3"": 0.65}",40,6,6,6,6534.29999999702,blue,1,6,1,js-scroll-button-response,122,1,2,60,55           50           50           50           50           55,blueredredredblueblue,0  1  1  1  0  0,2,2
11696498,Button0Red,1,"{""Source1"": 0.50, ""Source2"": 0.55, ""Source3"": 0.65}",40,6,6,6,5749.69999999925,blue,0,6,1,js-scroll-button-response,124,0,2,61,65           55           65           55           55           50,redredblueredbluered,1  1  0  1  0  1,2,2
11696498,Button0Red,1,"{""Source1"": 0.50, ""Source2"": 0.55, ""Source3"": 0.65}",40,6,6,6,4898.5,red,1,6,0,js-scroll-button-response,126,0,2,62,55           65           50           55           55           50,redblueredblueblueblue,1  0  1  0  0  0,2,2
11696498,Button0Red,1,"{""Source1"": 0.50, ""Source2"": 0.55, ""Source3"": 0.65}",40,6,6,6,5797.39999999851,red,1,6,0,js-scroll-button-response,128,0,2,63,65           55           55           65           50           55,blueblueredredblueblue,0  0  1  1  0  0,2,2
11696498,Button0Red,1,"{""Source1"": 0.50, ""Source2"": 0.55, ""Source3"": 0.65}",40,6,6,6,29612.4000000022,red,0,6,0,js-scroll-button-response,130,1,2,64,50  65  50  65  50  65,redredredbluebluered,1  1  1  0  0  1,2,2
11696498,Button0Red,1,"{""Source1"": 0.50, ""Source2"": 0.55, ""Source3"": 0.65}",40,6,6,6,11259.3000000007,red,1,6,0,js-scroll-button-response,132,0,2,65,65           65           55           65           65           50,redredblueredredblue,1  1  0  1  1  0,2,2
11696498,Button0Red,1,"{""Source1"": 0.50, ""Source2"": 0.55, ""Source3"": 0.65}",40,6,6,6,4552.29999999702,blue,1,6,1,js-scroll-button-response,134,1,2,66,55           65           65           55           65           55,blueblueblueblueblueblue,0  0  0  0  0  0,2,2
11696498,Button0Red,1,"{""Source1"": 0.50, ""Source2"": 0.55, ""Source3"": 0.65}",40,6,6,6,10676.8000000007,blue,0,6,1,js-scroll-button-response,136,0,2,67,65           55           50           50           65           55,redblueredredbluered,1  0  1  1  0  1,2,2
11696498,Button0Red,1,"{""Source1"": 0.50, ""Source2"": 0.55, ""Source3"": 0.65}",40,6,6,6,6454.70000000298,red,1,6,0,js-scroll-button-response,138,0,2,68,55           55           65           65           50           55,redblueblueblueblueblue,1  0  0  0  0  0,2,2
11696498,Button0Red,1,"{""Source1"": 0.50, ""Source2"": 0.55, ""Source3"": 0.65}",40,6,6,6,12682.6999999993,red,0,6,0,js-scroll-button-response,140,1,2,69,55           50           50           50           50           50,redredbluebluebluered,1  1  0  0  0  1,2,2
11696498,Button0Red,1,"{""Source1"": 0.50, ""Source2"": 0.55, ""Source3"": 0.65}",40,6,6,6,6261.80000000075,red,0,6,0,js-scroll-button-response,142,1,2,70,55           65           55           65           65           65,redredredredredblue,1  1  1  1  1  0,2,2
11696498,Button0Red,1,"{""Source1"": 0.50, ""Source2"": 0.55, ""Source3"": 0.65}",40,6,6,6,6181.80000000075,red,1,6,0,js-scroll-button-response,144,0,2,71,65           55           55           55           65           55,redredbluebluebluered,1  1  0  0  0  1,2,2
11696498,Button0Red,1,"{""Source1"": 0.50, ""Source2"": 0.55, ""Source3"": 0.65}",40,6,6,6,11157.5,blue,0,6,1,js-scroll-button-response,146,0,2,72,65           65           50           50           55           55,blueredblueblueredred,0  1  0  0  1  1,2,2
11696498,Button0Red,1,"{""Source1"": 0.50, ""Source2"": 0.55, ""Source3"": 0.65}",40,6,6,6,11367.6999999993,red,1,6,0,js-scroll-button-response,148,0,2,73,55           65           50           65           55           55,redblueblueblueredred,1  0  0  0  1  1,2,2
11696498,Button0Red,1,"{""Source1"": 0.50, ""Source2"": 0.55, ""Source3"": 0.65}",40,6,6,6,12271.3999999985,red,0,6,0,js-scroll-button-response,150,1,2,74,55           50           55           50           55           55,redblueredredbluered,1  0  1  1  0  1,2,2
11696498,Button0Red,1,"{""Source1"": 0.50, ""Source2"": 0.55, ""Source3"": 0.65}",40,6,6,6,9162.89999999851,blue,1,6,1,js-scroll-button-response,152,1,2,75,55           65           50           65           50           50,redblueblueblueblueblue,1  0  0  0  0  0,2,2
11696498,Button0Red,1,"{""Source1"": 0.50, ""Source2"": 0.55, ""Source3"": 0.65}",40,6,6,6,17589.1999999993,blue,0,6,1,js-scroll-button-response,154,0,2,76,55           55           55           50           55           55,redblueblueblueredred,1  0  0  0  1  1,2,2
11696498,Button0Red,1,"{""Source1"": 0.50, ""Source2"": 0.55, ""Source3"": 0.65}",40,6,6,6,5898,red,0,6,0,js-scroll-button-response,156,1,2,77,55           50           65           65           65           65,redredblueredbluered,1  1  0  1  0  1,2,2
11696498,Button0Red,1,"{""Source1"": 0.50, ""Source2"": 0.55, ""Source3"": 0.65}",40,6,6,6,5282.30000000075,blue,1,6,1,js-scroll-button-response,158,1,2,78,50           65           65           65           65           55,redblueblueblueblueblue,1  0  0  0  0  0,2,2
11696498,Button0Red,1,"{""Source1"": 0.50, ""Source2"": 0.55, ""Source3"": 0.65}",40,6,6,6,4687.09999999776,red,0,6,0,js-scroll-button-response,160,1,2,79,65           65           55           50           55           55,redblueredbluebluered,1  0  1  0  0  1,2,2
11696498,Button0Red,1,"{""Source1"": 0.50, ""Source2"": 0.55, ""Source3"": 0.65}",40,6,6,6,7014.19999999925,red,0,6,0,js-scroll-button-response,162,1,2,80,55           55           55           55           50           55,blueblueredredbluered,0  0  1  1  0  1,2,2
11696498,Button0Red,1,"{""Source1"": 0.50, ""Source2"": 0.55, ""Source3"": 0.65}",40,6,6,6,15013.799999997,red,1,6,0,js-scroll-button-response,165,0,3,81,50           55           65           50           65           50,blueredredbluebluered,0  1  1  0  0  1,2,2
11696498,Button0Red,1,"{""Source1"": 0.50, ""Source2"": 0.55, ""Source3"": 0.65}",40,6,6,6,5222.40000000224,red,1,6,0,js-scroll-button-response,167,0,3,82,50           65           55           55           65           50,blueblueredblueblueblue,0  0  1  0  0  0,2,2
11696498,Button0Red,1,"{""Source1"": 0.50, ""Source2"": 0.55, ""Source3"": 0.65}",40,6,6,6,9200.10000000149,blue,0,6,1,js-scroll-button-response,169,0,3,83,55           55           50           65           65           55,blueredblueblueredblue,0  1  0  0  1  0,2,2
11696498,Button0Red,1,"{""Source1"": 0.50, ""Source2"": 0.55, ""Source3"": 0.65}",40,6,6,6,9008.59999999776,red,0,6,0,js-scroll-button-response,171,1,3,84,65           65           55           50           65           65,blueredredredredblue,0  1  1  1  1  0,2,2
11696498,Button0Red,1,"{""Source1"": 0.50, ""Source2"": 0.55, ""Source3"": 0.65}",40,6,6,6,5124.30000000075,blue,0,6,1,js-scroll-button-response,173,0,3,85,50           65           55           50           65           50,redredredredblueblue,1  1  1  1  0  0,2,2
11696498,Button0Red,1,"{""Source1"": 0.50, ""Source2"": 0.55, ""Source3"": 0.65}",40,6,6,6,9529.80000000075,blue,0,6,1,js-scroll-button-response,175,0,3,86,55           65           55           50           50           50,redredblueredredblue,1  1  0  1  1  0,2,2
11696498,Button0Red,1,"{""Source1"": 0.50, ""Source2"": 0.55, ""Source3"": 0.65}",40,6,6,6,4997.09999999776,red,1,6,0,js-scroll-button-response,177,0,3,87,55           65           55           50           65           55,blueblueblueblueredblue,0  0  0  0  1  0,2,2
11696498,Button0Red,1,"{""Source1"": 0.50, ""Source2"": 0.55, ""Source3"": 0.65}",40,6,6,6,4944.60000000149,blue,0,6,1,js-scroll-button-response,179,0,3,88,65           50           50           55           55           55,redredredblueredblue,1  1  1  0  1  0,2,2
11696498,Button0Red,1,"{""Source1"": 0.50, ""Source2"": 0.55, ""Source3"": 0.65}",40,6,6,6,9327.90000000224,blue,0,6,1,js-scroll-button-response,181,0,3,89,55           50           55           50           50           50,redblueredredredred,1  0  1  1  1  1,2,2
11696498,Button0Red,1,"{""Source1"": 0.50, ""Source2"": 0.55, ""Source3"": 0.65}",40,6,6,6,5617.39999999851,red,0,6,0,js-scroll-button-response,183,1,3,90,55           55           65           50           50           50,blueredredredredred,0  1  1  1  1  1,2,2
11696498,Button0Red,1,"{""Source1"": 0.50, ""Source2"": 0.55, ""Source3"": 0.65}",40,6,6,6,4561.09999999776,red,0,6,0,js-scroll-button-response,185,1,3,91,65           50           55           65           65           65,redblueblueredredred,1  0  0  1  1  1,2,2
11696498,Button0Red,1,"{""Source1"": 0.50, ""Source2"": 0.55, ""Source3"": 0.65}",40,6,6,6,5060.19999999925,red,0,6,0,js-scroll-button-response,187,1,3,92,55           65           50           65           55           55,redblueredredredblue,1  0  1  1  1  0,2,2
11696498,Button0Red,1,"{""Source1"": 0.50, ""Source2"": 0.55, ""Source3"": 0.65}",40,6,6,6,4758.69999999925,red,0,6,0,js-scroll-button-response,189,1,3,93,50           65           55           65           55           65,blueredredredredblue,0  1  1  1  1  0,2,2
11696498,Button0Red,1,"{""Source1"": 0.50, ""Source2"": 0.55, ""Source3"": 0.65}",40,6,6,6,5171.39999999851,red,0,6,0,js-scroll-button-response,191,1,3,94,65  50  65  50  50  50,blueblueredredbluered,0  0  1  1  0  1,2,2
11696498,Button0Red,1,"{""Source1"": 0.50, ""Source2"": 0.55, ""Source3"": 0.65}",40,6,6,6,7052.89999999851,red,0,6,0,js-scroll-button-response,193,1,3,95,65  65  50  50  65  50,redredredbluebluered,1  1  1  0  0  1,2,2
11696498,Button0Red,1,"{""Source1"": 0.50, ""Source2"": 0.55, ""Source3"": 0.65}",40,6,6,6,5320.70000000298,blue,1,6,1,js-scroll-button-response,195,1,3,96,50           65           55           50           55           55,redredredblueredred,1  1  1  0  1  1,2,2
11696498,Button0Red,1,"{""Source1"": 0.50, ""Source2"": 0.55, ""Source3"": 0.65}",40,6,6,6,9344.10000000149,red,0,6,0,js-scroll-button-response,197,1,3,97,55           55           55           65           55           55,blueredredredbluered,0  1  1  1  0  1,2,2
11696498,Button0Red,1,"{""Source1"": 0.50, ""Source2"": 0.55, ""Source3"": 0.65}",40,6,6,6,5240.09999999776,blue,0,6,1,js-scroll-button-response,199,0,3,98,65  65  65  65  50  65,redredredredbluered,1  1  1  1  0  1,2,2
11696498,Button0Red,1,"{""Source1"": 0.50, ""Source2"": 0.55, ""Source3"": 0.65}",40,6,6,6,18386.8999999985,red,0,6,0,js-scroll-button-response,201,1,3,99,50           50           50           55           65           50,blueblueredblueredred,0  0  1  0  1  1,2,2
11696498,Button0Red,1,"{""Source1"": 0.50, ""Source2"": 0.55, ""Source3"": 0.65}",40,6,6,6,16494.0999999978,red,0,6,0,js-scroll-button-response,203,1,3,100,50           55           50           65           65           55,redblueredredredred,1  0  1  1  1  1,2,2
11696498,Button0Red,1,"{""Source1"": 0.50, ""Source2"": 0.55, ""Source3"": 0.65}",40,6,6,6,8769,red,1,6,0,js-scroll-button-response,205,0,3,101,65           55           55           50           50           55,blueblueredblueredred,0  0  1  0  1  1,2,2
11696498,Button0Red,1,"{""Source1"": 0.50, ""Source2"": 0.55, ""Source3"": 0.65}",40,6,6,6,5494.39999999851,red,1,6,0,js-scroll-button-response,207,0,3,102,65           55           55           50           65           55,redbluebluebluebluered,1  0  0  0  0  1,2,2
11696498,Button0Red,1,"{""Source1"": 0.50, ""Source2"": 0.55, ""Source3"": 0.65}",40,6,6,6,5117.09999999776,red,1,6,0,js-scroll-button-response,209,0,3,103,55           65           65           50           65           55,redredblueredblueblue,1  1  0  1  0  0,2,2
11696498,Button0Red,1,"{""Source1"": 0.50, ""Source2"": 0.55, ""Source3"": 0.65}",40,6,6,6,4905.10000000149,blue,1,6,1,js-scroll-button-response,211,1,3,104,65           65           50           55           65           50,blueblueblueblueredred,0  0  0  0  1  1,2,2
11696498,Button0Red,1,"{""Source1"": 0.50, ""Source2"": 0.55, ""Source3"": 0.65}",40,6,6,6,4469.20000000298,red,0,6,0,js-scroll-button-response,213,1,3,105,65           65           55           50           50           65,blueredbluebluebluered,0  1  0  0  0  1,2,2
11696498,Button0Red,1,"{""Source1"": 0.50, ""Source2"": 0.55, ""Source3"": 0.65}",40,6,6,6,5064.60000000149,blue,1,6,1,js-scroll-button-response,215,1,3,106,50           50           55           55           55           65,blueblueblueblueblueblue,0  0  0  0  0  0,2,2
11696498,Button0Red,1,"{""Source1"": 0.50, ""Source2"": 0.55, ""Source3"": 0.65}",40,6,6,6,4912.69999999925,red,1,6,0,js-scroll-button-response,217,0,3,107,65           50           50           50           55           50,redredredblueblueblue,1  1  1  0  0  0,2,2
11696498,Button0Red,1,"{""Source1"": 0.50, ""Source2"": 0.55, ""Source3"": 0.65}",40,6,6,6,4332.89999999851,red,0,6,0,js-scroll-button-response,219,1,3,108,50           65           65           55           50           65,blueblueredredbluered,0  0  1  1  0  1,2,2
11696498,Button0Red,1,"{""Source1"": 0.50, ""Source2"": 0.55, ""Source3"": 0.65}",40,6,6,6,6556,red,0,6,0,js-scroll-button-response,221,1,3,109,55           65           55           55           65           55,blueredblueredredred,0  1  0  1  1  1,2,2
11696498,Button0Red,1,"{""Source1"": 0.50, ""Source2"": 0.55, ""Source3"": 0.65}",40,6,6,6,7459.5,blue,1,6,1,js-scroll-button-response,223,1,3,110,65           55           65           50           50           55,redblueblueblueblueblue,1  0  0  0  0  0,2,2
11696498,Button0Red,1,"{""Source1"": 0.50, ""Source2"": 0.55, ""Source3"": 0.65}",40,6,6,6,10194.6000000015,red,0,6,0,js-scroll-button-response,225,1,3,111,65           50           55           55           55           65,redblueblueredredred,1  0  0  1  1  1,2,2
11696498,Button0Red,1,"{""Source1"": 0.50, ""Source2"": 0.55, ""Source3"": 0.65}",40,6,6,6,5658.5,red,0,6,0,js-scroll-button-response,227,1,3,112,50           55           50           65           50           55,redredredredredred,1  1  1  1  1  1,2,2
11696498,Button0Red,1,"{""Source1"": 0.50, ""Source2"": 0.55, ""Source3"": 0.65}",40,6,6,6,4691.59999999776,red,1,6,0,js-scroll-button-response,229,0,3,113,65  50  65  65  50  65,redblueredblueredblue,1  0  1  0  1  0,2,2
11696498,Button0Red,1,"{""Source1"": 0.50, ""Source2"": 0.55, ""Source3"": 0.65}",40,6,6,6,6207.10000000149,blue,0,6,1,js-scroll-button-response,231,0,3,114,65           50           50           50           55           55,redredblueredblueblue,1  1  0  1  0  0,2,2
11696498,Button0Red,1,"{""Source1"": 0.50, ""Source2"": 0.55, ""Source3"": 0.65}",40,6,6,6,4279.39999999851,red,1,6,0,js-scroll-button-response,233,0,3,115,65           55           55           55           65           50,bluebluebluebluebluered,0  0  0  0  0  1,2,2
11696498,Button0Red,1,"{""Source1"": 0.50, ""Source2"": 0.55, ""Source3"": 0.65}",40,6,6,6,5584.69999999925,blue,1,6,1,js-scroll-button-response,235,1,3,116,55           50           55           50           65           55,bluebluebluebluebluered,0  0  0  0  0  1,2,2
11696498,Button0Red,1,"{""Source1"": 0.50, ""Source2"": 0.55, ""Source3"": 0.65}",40,6,6,6,4567.5,red,0,6,0,js-scroll-button-response,237,1,3,117,55           50           55           50           65           65,blueblueredblueredred,0  0  1  0  1  1,2,2
11696498,Button0Red,1,"{""Source1"": 0.50, ""Source2"": 0.55, ""Source3"": 0.65}",40,6,6,6,7259.5,red,1,6,0,js-scroll-button-response,239,0,3,118,55           55           65           65           65           65,blueredbluebluebluered,0  1  0  0  0  1,2,2
11696498,Button0Red,1,"{""Source1"": 0.50, ""Source2"": 0.55, ""Source3"": 0.65}",40,6,6,6,7239.89999999851,blue,0,6,1,js-scroll-button-response,241,0,3,119,55           50           65           50           50           55,blueblueredblueblueblue,0  0  1  0  0  0,2,2
11696498,Button0Red,1,"{""Source1"": 0.50, ""Source2"": 0.55, ""Source3"": 0.65}",40,6,6,6,4924.30000000075,blue,0,6,1,js-scroll-button-response,243,0,3,120,50           55           50           65           50           65,redredredblueredred,1  1  1  0  1  1,2,2
11696498,Button0Red,1,"{""Source1"": 0.50, ""Source2"": 0.55, ""Source3"": 0.65}",40,6,6,6,4073.10000000149,blue,0,6,1,js-scroll-button-response,246,0,4,121,50           50           55           65           65           50,blueblueblueblueredred,0  0  0  0  1  1,2,2
11696498,Button0Red,1,"{""Source1"": 0.50, ""Source2"": 0.55, ""Source3"": 0.65}",40,6,6,6,4175.80000000075,red,0,6,0,js-scroll-button-response,248,1,4,122,50  50  50  50  65  50,redredblueredredblue,1  1  0  1  1  0,2,2
11696498,Button0Red,1,"{""Source1"": 0.50, ""Source2"": 0.55, ""Source3"": 0.65}",40,6,6,6,4112.30000000075,red,1,6,0,js-scroll-button-response,250,0,4,123,65           55           50           50           65           50,blueblueblueblueredred,0  0  0  0  1  1,2,2
11696498,Button0Red,1,"{""Source1"": 0.50, ""Source2"": 0.55, ""Source3"": 0.65}",40,6,6,6,5049,red,0,6,0,js-scroll-button-response,252,1,4,124,50           50           55           50           50           50,redredblueredblueblue,1  1  0  1  0  0,2,2
11696498,Button0Red,1,"{""Source1"": 0.50, ""Source2"": 0.55, ""Source3"": 0.65}",40,6,6,6,4033.80000000075,blue,0,6,1,js-scroll-button-response,254,0,4,125,55           50           65           50           55           50,redredredblueblueblue,1  1  1  0  0  0,2,2
11696498,Button0Red,1,"{""Source1"": 0.50, ""Source2"": 0.55, ""Source3"": 0.65}",40,6,6,6,4194.09999999776,red,1,6,0,js-scroll-button-response,256,0,4,126,65           55           50           65           55           65,redredredredredblue,1  1  1  1  1  0,2,2
11696498,Button0Red,1,"{""Source1"": 0.50, ""Source2"": 0.55, ""Source3"": 0.65}",40,6,6,6,3667.40000000224,red,0,6,0,js-scroll-button-response,258,1,4,127,65           55           50           55           50           50,redblueblueblueredblue,1  0  0  0  1  0,2,2
11696498,Button0Red,1,"{""Source1"": 0.50, ""Source2"": 0.55, ""Source3"": 0.65}",40,6,6,6,4204,blue,0,6,1,js-scroll-button-response,260,0,4,128,50           50           55           50           50           50,blueredredblueredred,0  1  1  0  1  1,2,2
11696498,Button0Red,1,"{""Source1"": 0.50, ""Source2"": 0.55, ""Source3"": 0.65}",40,6,6,6,3724.69999999925,red,0,6,0,js-scroll-button-response,262,1,4,129,50           55           65           50           65           50,redblueblueredblueblue,1  0  0  1  0  0,2,2
11696498,Button0Red,1,"{""Source1"": 0.50, ""Source2"": 0.55, ""Source3"": 0.65}",40,6,6,6,4648.60000000149,red,1,6,0,js-scroll-button-response,264,0,4,130,50           65           50           65           55           55,blueredredblueredblue,0  1  1  0  1  0,2,2
11696498,Button0Red,1,"{""Source1"": 0.50, ""Source2"": 0.55, ""Source3"": 0.65}",40,6,6,6,3692.10000000149,blue,1,6,1,js-scroll-button-response,266,1,4,131,55           50           55           55           55           65,redblueredredblueblue,1  0  1  1  0  0,2,2
11696498,Button0Red,1,"{""Source1"": 0.50, ""Source2"": 0.55, ""Source3"": 0.65}",40,6,6,6,3830.89999999851,red,1,6,0,js-scroll-button-response,268,0,4,132,65           55           55           50           55           50,redredblueredbluered,1  1  0  1  0  1,2,2
11696498,Button0Red,1,"{""Source1"": 0.50, ""Source2"": 0.55, ""Source3"": 0.65}",40,6,6,6,3612.80000000075,blue,1,6,1,js-scroll-button-response,270,1,4,133,65           65           65           65           55           65,blueredblueblueredblue,0  1  0  0  1  0,2,2
11696498,Button0Red,1,"{""Source1"": 0.50, ""Source2"": 0.55, ""Source3"": 0.65}",40,6,6,6,4346,red,0,6,0,js-scroll-button-response,272,1,4,134,55           55           50           65           65           55,blueblueredredblueblue,0  0  1  1  0  0,2,2
11696498,Button0Red,1,"{""Source1"": 0.50, ""Source2"": 0.55, ""Source3"": 0.65}",40,6,6,6,4770.09999999776,red,1,6,0,js-scroll-button-response,274,0,4,135,50           55           50           55           55           55,blueblueredredredred,0  0  1  1  1  1,2,2
11696498,Button0Red,1,"{""Source1"": 0.50, ""Source2"": 0.55, ""Source3"": 0.65}",40,6,6,6,4063.69999999925,red,1,6,0,js-scroll-button-response,276,0,4,136,65  50  50  65  50  50,blueredredbluebluered,0  1  1  0  0  1,2,2
11696498,Button0Red,1,"{""Source1"": 0.50, ""Source2"": 0.55, ""Source3"": 0.65}",40,6,6,6,3742.69999999925,blue,1,6,1,js-scroll-button-response,278,1,4,137,55           50           55           50           50           65,blueblueredblueblueblue,0  0  1  0  0  0,2,2
11696498,Button0Red,1,"{""Source1"": 0.50, ""Source2"": 0.55, ""Source3"": 0.65}",40,6,6,6,4468.60000000149,red,0,6,0,js-scroll-button-response,280,1,4,138,65           50           55           55           50           55,redredblueblueredblue,1  1  0  0  1  0,2,2
11696498,Button0Red,1,"{""Source1"": 0.50, ""Source2"": 0.55, ""Source3"": 0.65}",40,6,6,6,3682.30000000075,red,1,6,0,js-scroll-button-response,282,0,4,139,65  65  65  65  65  65,redredblueblueredblue,1  1  0  0  1  0,2,2
11696498,Button0Red,1,"{""Source1"": 0.50, ""Source2"": 0.55, ""Source3"": 0.65}",40,6,6,6,5747.10000000149,blue,0,6,1,js-scroll-button-response,284,0,4,140,50           55           65           55           65           55,blueredblueredbluered,0  1  0  1  0  1,2,2
11696498,Button0Red,1,"{""Source1"": 0.50, ""Source2"": 0.55, ""Source3"": 0.65}",40,6,6,6,4301.10000000149,red,0,6,0,js-scroll-button-response,286,1,4,141,55           55           55           50           65           55,blueredredblueblueblue,0  1  1  0  0  0,2,2
11696498,Button0Red,1,"{""Source1"": 0.50, ""Source2"": 0.55, ""Source3"": 0.65}",40,6,6,6,3913.39999999851,red,0,6,0,js-scroll-button-response,288,1,4,142,50  50  65  50  50  65,redredblueredredred,1  1  0  1  1  1,2,2
11696498,Button0Red,1,"{""Source1"": 0.50, ""Source2"": 0.55, ""Source3"": 0.65}",40,6,6,6,3703.09999999776,blue,0,6,1,js-scroll-button-response,290,0,4,143,65           65           55           65           55           65,redblueblueblueredred,1  0  0  0  1  1,2,2
11696498,Button0Red,1,"{""Source1"": 0.50, ""Source2"": 0.55, ""Source3"": 0.65}",40,6,6,6,3636.80000000075,blue,0,6,1,js-scroll-button-response,292,0,4,144,65           55           65           55           50           55,blueredredblueredblue,0  1  1  0  1  0,2,2
11696498,Button0Red,1,"{""Source1"": 0.50, ""Source2"": 0.55, ""Source3"": 0.65}",40,6,6,6,3600.5,blue,0,6,1,js-scroll-button-response,294,0,4,145,65           65           55           65           55           50,redblueredblueredblue,1  0  1  0  1  0,2,2
11696498,Button0Red,1,"{""Source1"": 0.50, ""Source2"": 0.55, ""Source3"": 0.65}",40,6,6,6,3533.19999999925,red,0,6,0,js-scroll-button-response,296,1,4,146,55           50           65           50           55           65,blueblueredredbluered,0  0  1  1  0  1,2,2
11696498,Button0Red,1,"{""Source1"": 0.50, ""Source2"": 0.55, ""Source3"": 0.65}",40,6,6,6,3573.69999999925,red,0,6,0,js-scroll-button-response,298,1,4,147,55           50           50           55           50           55,redblueredblueredblue,1  0  1  0  1  0,2,2
11696498,Button0Red,1,"{""Source1"": 0.50, ""Source2"": 0.55, ""Source3"": 0.65}",40,6,6,6,4571.19999999925,blue,1,6,1,js-scroll-button-response,300,1,4,148,65           65           65           50           55           50,blueblueblueredbluered,0  0  0  1  0  1,2,2
11696498,Button0Red,1,"{""Source1"": 0.50, ""Source2"": 0.55, ""Source3"": 0.65}",40,6,6,6,26802.8000000007,red,0,6,0,js-scroll-button-response,302,1,4,149,55           55           50           65           65           50,redblueblueredblueblue,1  0  0  1  0  0,2,2
11696498,Button0Red,1,"{""Source1"": 0.50, ""Source2"": 0.55, ""Source3"": 0.65}",40,6,6,6,3952.90000000224,red,0,6,0,js-scroll-button-response,304,1,4,150,50           65           55           50           65           50,blueredblueredredblue,0  1  0  1  1  0,2,2
11696498,Button0Red,1,"{""Source1"": 0.50, ""Source2"": 0.55, ""Source3"": 0.65}",40,6,6,6,3937.60000000149,blue,1,6,1,js-scroll-button-response,306,1,4,151,65           55           65           50           50           65,blueblueredblueredblue,0  0  1  0  1  0,2,2
11696498,Button0Red,1,"{""Source1"": 0.50, ""Source2"": 0.55, ""Source3"": 0.65}",40,6,6,6,4271.89999999851,blue,1,6,1,js-scroll-button-response,308,1,4,152,55           55           65           50           65           55,blueblueblueredbluered,0  0  0  1  0  1,2,2
11696498,Button0Red,1,"{""Source1"": 0.50, ""Source2"": 0.55, ""Source3"": 0.65}",40,6,6,6,3656.90000000224,blue,1,6,1,js-scroll-button-response,310,1,4,153,55           55           65           50           65           55,blueblueblueredredred,0  0  0  1  1  1,2,2
11696498,Button0Red,1,"{""Source1"": 0.50, ""Source2"": 0.55, ""Source3"": 0.65}",40,6,6,6,3321,red,0,6,0,js-scroll-button-response,312,1,4,154,50           55           55           55           55           65,redblueblueblueredblue,1  0  0  0  1  0,2,2
11696498,Button0Red,1,"{""Source1"": 0.50, ""Source2"": 0.55, ""Source3"": 0.65}",40,6,6,6,4761.09999999776,red,0,6,0,js-scroll-button-response,314,1,4,155,50  65  50  65  65  50,blueblueblueredblueblue,0  0  0  1  0  0,2,2
11696498,Button0Red,1,"{""Source1"": 0.50, ""Source2"": 0.55, ""Source3"": 0.65}",40,6,6,6,5298.60000000149,red,1,6,0,js-scroll-button-response,316,0,4,156,50  50  50  50  50  65,blueblueblueblueblueblue,0  0  0  0  0  0,2,2
11696498,Button0Red,1,"{""Source1"": 0.50, ""Source2"": 0.55, ""Source3"": 0.65}",40,6,6,6,4182,red,1,6,0,js-scroll-button-response,318,0,4,157,65           55           65           50           65           55,redredredredbluered,1  1  1  1  0  1,2,2
11696498,Button0Red,1,"{""Source1"": 0.50, ""Source2"": 0.55, ""Source3"": 0.65}",40,6,6,6,6374.59999999776,red,0,6,0,js-scroll-button-response,320,1,4,158,50           55           65           65           65           50,blueblueblueredblueblue,0  0  0  1  0  0,2,2
11696498,Button0Red,1,"{""Source1"": 0.50, ""Source2"": 0.55, ""Source3"": 0.65}",40,6,6,6,6830.19999999925,red,0,6,0,js-scroll-button-response,322,1,4,159,50           65           50           55           65           55,redredredblueredblue,1  1  1  0  1  0,2,2
11696498,Button0Red,1,"{""Source1"": 0.50, ""Source2"": 0.55, ""Source3"": 0.65}",40,6,6,6,8245.69999999925,red,0,6,0,js-scroll-button-response,324,1,4,160,65           50           55           65           65           55,redredredblueredblue,1  1  1  0  1  0,2,2
11696498,Button0Red,1,"{""Source1"": 0.50, ""Source2"": 0.55, ""Source3"": 0.65}",40,6,6,6,6034.90000000224,red,1,6,0,js-scroll-button-response,327,0,5,161,50  65  65  65  50  65,blueredredredredblue,0  1  1  1  1  0,2,2
11696498,Button0Red,1,"{""Source1"": 0.50, ""Source2"": 0.55, ""Source3"": 0.65}",40,6,6,6,4881.60000000149,blue,0,6,1,js-scroll-button-response,329,0,5,162,65           55           55           50           50           55,blueblueblueblueblueblue,0  0  0  0  0  0,2,2
11696498,Button0Red,1,"{""Source1"": 0.50, ""Source2"": 0.55, ""Source3"": 0.65}",40,6,6,6,5561.19999999925,blue,1,6,1,js-scroll-button-response,331,1,5,163,55           65           55           50           55           55,blueblueredredbluered,0  0  1  1  0  1,2,2
11696498,Button0Red,1,"{""Source1"": 0.50, ""Source2"": 0.55, ""Source3"": 0.65}",40,6,6,6,3913.30000000075,red,0,6,0,js-scroll-button-response,333,1,5,164,55           55           65           50           65           50,redredredblueredblue,1  1  1  0  1  0,2,2
11696498,Button0Red,1,"{""Source1"": 0.50, ""Source2"": 0.55, ""Source3"": 0.65}",40,6,6,6,4631.19999999925,blue,0,6,1,js-scroll-button-response,335,0,5,165,50  50  65  65  50  50,redredredredblueblue,1  1  1  1  0  0,2,2
11696498,Button0Red,1,"{""Source1"": 0.50, ""Source2"": 0.55, ""Source3"": 0.65}",40,6,6,6,18471.200000003,blue,0,6,1,js-scroll-button-response,337,0,5,166,55           50           55           50           65           50,redblueblueblueredblue,1  0  0  0  1  0,2,2
11696498,Button0Red,1,"{""Source1"": 0.50, ""Source2"": 0.55, ""Source3"": 0.65}",40,6,6,6,28711.1000000015,red,1,6,0,js-scroll-button-response,339,0,5,167,65  50  65  65  65  65,blueblueblueredredblue,0  0  0  1  1  0,2,2
11696498,Button0Red,1,"{""Source1"": 0.50, ""Source2"": 0.55, ""Source3"": 0.65}",40,6,6,6,5098.60000000149,blue,1,6,1,js-scroll-button-response,341,1,5,168,65           50           55           50           65           65,blueredredblueredblue,0  1  1  0  1  0,2,2
11696498,Button0Red,1,"{""Source1"": 0.50, ""Source2"": 0.55, ""Source3"": 0.65}",40,6,6,6,10835.8000000007,blue,1,6,1,js-scroll-button-response,343,1,5,169,50           50           50           55           55           65,blueredblueblueredred,0  1  0  0  1  1,2,2
11696498,Button0Red,1,"{""Source1"": 0.50, ""Source2"": 0.55, ""Source3"": 0.65}",40,6,6,6,3844.10000000149,blue,0,6,1,js-scroll-button-response,345,0,5,170,50           50           65           65           50           55,blueblueblueredredblue,0  0  0  1  1  0,2,2
11696498,Button0Red,1,"{""Source1"": 0.50, ""Source2"": 0.55, ""Source3"": 0.65}",40,6,6,6,6192.89999999851,red,0,6,0,js-scroll-button-response,347,1,5,171,65           50           55           65           65           50,redblueblueredblueblue,1  0  0  1  0  0,2,2
11696498,Button0Red,1,"{""Source1"": 0.50, ""Source2"": 0.55, ""Source3"": 0.65}",40,6,6,6,4480.60000000149,red,1,6,0,js-scroll-button-response,349,0,5,172,65           50           55           50           55           55,redredblueredblueblue,1  1  0  1  0  0,2,2
11696498,Button0Red,1,"{""Source1"": 0.50, ""Source2"": 0.55, ""Source3"": 0.65}",40,6,6,6,4529,red,0,6,0,js-scroll-button-response,351,1,5,173,65           65           55           50           55           50,redredredblueblueblue,1  1  1  0  0  0,2,2
11696498,Button0Red,1,"{""Source1"": 0.50, ""Source2"": 0.55, ""Source3"": 0.65}",40,6,6,6,4036.5,red,1,6,0,js-scroll-button-response,353,0,5,174,55           55           55           55           50           50,blueblueredbluebluered,0  0  1  0  0  1,2,2
11696498,Button0Red,1,"{""Source1"": 0.50, ""Source2"": 0.55, ""Source3"": 0.65}",40,6,6,6,7763.80000000075,red,1,6,0,js-scroll-button-response,355,0,5,175,55           65           65           55           50           55,blueblueblueredredblue,0  0  0  1  1  0,2,2
11696498,Button0Red,1,"{""Source1"": 0.50, ""Source2"": 0.55, ""Source3"": 0.65}",40,6,6,6,4240.69999999925,red,0,6,0,js-scroll-button-response,357,1,5,176,65           50           55           50           65           50,redredbluebluebluered,1  1  0  0  0  1,2,2
11696498,Button0Red,1,"{""Source1"": 0.50, ""Source2"": 0.55, ""Source3"": 0.65}",40,6,6,6,3528.5,red,0,6,0,js-scroll-button-response,359,1,5,177,55           55           65           50           50           50,redredbluebluebluered,1  1  0  0  0  1,2,2
11696498,Button0Red,1,"{""Source1"": 0.50, ""Source2"": 0.55, ""Source3"": 0.65}",40,6,6,6,3572.30000000075,red,0,6,0,js-scroll-button-response,361,1,5,178,50           50           50           55           50           50,redblueredbluebluered,1  0  1  0  0  1,2,2
11696498,Button0Red,1,"{""Source1"": 0.50, ""Source2"": 0.55, ""Source3"": 0.65}",40,6,6,6,5491.10000000149,red,1,6,0,js-scroll-button-response,363,0,5,179,50           50           55           55           50           50,blueredredblueblueblue,0  1  1  0  0  0,2,2
11696498,Button0Red,1,"{""Source1"": 0.50, ""Source2"": 0.55, ""Source3"": 0.65}",40,6,6,6,4192.29999999702,red,1,6,0,js-scroll-button-response,365,0,5,180,65           65           55           55           65           65,redredredblueredblue,1  1  1  0  1  0,2,2
11696498,Button0Red,1,"{""Source1"": 0.50, ""Source2"": 0.55, ""Source3"": 0.65}",40,6,6,6,4496,red,0,6,0,js-scroll-button-response,367,1,5,181,55           65           55           55           50           55,redredblueredblueblue,1  1  0  1  0  0,2,2
11696498,Button0Red,1,"{""Source1"": 0.50, ""Source2"": 0.55, ""Source3"": 0.65}",40,6,6,6,4057.5,blue,0,6,1,js-scroll-button-response,369,0,5,182,55           65           65           50           55           65,redbluebluebluebluered,1  0  0  0  0  1,2,2
11696498,Button0Red,1,"{""Source1"": 0.50, ""Source2"": 0.55, ""Source3"": 0.65}",40,6,6,6,3466.19999999925,red,1,6,0,js-scroll-button-response,371,0,5,183,55           65           65           55           50           65,blueblueredredblueblue,0  0  1  1  0  0,2,2
11696498,Button0Red,1,"{""Source1"": 0.50, ""Source2"": 0.55, ""Source3"": 0.65}",40,6,6,6,20475.8999999985,blue,1,6,1,js-scroll-button-response,373,1,5,184,55           50           50           50           65           65,blueredblueblueblueblue,0  1  0  0  0  0,2,2
11696498,Button0Red,1,"{""Source1"": 0.50, ""Source2"": 0.55, ""Source3"": 0.65}",40,6,6,6,8924.80000000075,red,1,6,0,js-scroll-button-response,375,0,5,185,50           50           65           55           50           50,redblueredbluebluered,1  0  1  0  0  1,2,2
11696498,Button0Red,1,"{""Source1"": 0.50, ""Source2"": 0.55, ""Source3"": 0.65}",40,6,6,6,5683.5,blue,0,6,1,js-scroll-button-response,377,0,5,186,55           65           55           50           50           55,redblueredblueredblue,1  0  1  0  1  0,2,2
11696498,Button0Red,1,"{""Source1"": 0.50, ""Source2"": 0.55, ""Source3"": 0.65}",40,6,6,6,3410.60000000149,red,1,6,0,js-scroll-button-response,379,0,5,187,50  65  50  65  50  65,blueblueredredblueblue,0  0  1  1  0  0,2,2
11696498,Button0Red,1,"{""Source1"": 0.50, ""Source2"": 0.55, ""Source3"": 0.65}",40,6,6,6,3504.29999999702,blue,0,6,1,js-scroll-button-response,381,0,5,188,50           55           65           65           65           55,redblueblueblueredred,1  0  0  0  1  1,2,2
11696498,Button0Red,1,"{""Source1"": 0.50, ""Source2"": 0.55, ""Source3"": 0.65}",40,6,6,6,3427.89999999851,blue,1,6,1,js-scroll-button-response,383,1,5,189,50  50  65  50  65  65,blueblueblueredblueblue,0  0  0  1  0  0,2,2
11696498,Button0Red,1,"{""Source1"": 0.50, ""Source2"": 0.55, ""Source3"": 0.65}",40,6,6,6,3465.69999999925,blue,0,6,1,js-scroll-button-response,385,0,5,190,65           55           65           65           65           65,blueblueredblueredred,0  0  1  0  1  1,2,2
11696498,Button0Red,1,"{""Source1"": 0.50, ""Source2"": 0.55, ""Source3"": 0.65}",40,6,6,6,3554.30000000075,blue,0,6,1,js-scroll-button-response,387,0,5,191,55           50           55           50           65           55,blueredredbluebluered,0  1  1  0  0  1,2,2
11696498,Button0Red,1,"{""Source1"": 0.50, ""Source2"": 0.55, ""Source3"": 0.65}",40,6,6,6,3725.09999999776,red,1,6,0,js-scroll-button-response,389,0,5,192,50           50           50           65           55           50,redblueredredblueblue,1  0  1  1  0  0,2,2
11696498,Button0Red,1,"{""Source1"": 0.50, ""Source2"": 0.55, ""Source3"": 0.65}",40,6,6,6,19741,red,1,6,0,js-scroll-button-response,391,0,5,193,50           55           55           55           55           50,redredredblueblueblue,1  1  1  0  0  0,2,2
11696498,Button0Red,1,"{""Source1"": 0.50, ""Source2"": 0.55, ""Source3"": 0.65}",40,6,6,6,23720.299999997,red,1,6,0,js-scroll-button-response,393,0,5,194,50  50  50  65  65  50,redredredredblueblue,1  1  1  1  0  0,2,2
11696498,Button0Red,1,"{""Source1"": 0.50, ""Source2"": 0.55, ""Source3"": 0.65}",40,6,6,6,4585.5,red,0,6,0,js-scroll-button-response,395,1,5,195,50           65           55           55           65           55,redredredbluebluered,1  1  1  0  0  1,2,2
11696498,Button0Red,1,"{""Source1"": 0.50, ""Source2"": 0.55, ""Source3"": 0.65}",40,6,6,6,4108.5,red,0,6,0,js-scroll-button-response,397,1,5,196,65           55           65           65           50           50,redblueredredredblue,1  0  1  1  1  0,2,2
11696498,Button0Red,1,"{""Source1"": 0.50, ""Source2"": 0.55, ""Source3"": 0.65}",40,6,6,6,3472.09999999776,red,0,6,0,js-scroll-button-response,399,1,5,197,55           55           65           50           65           65,redblueblueredredred,1  0  0  1  1  1,2,2
11696498,Button0Red,1,"{""Source1"": 0.50, ""Source2"": 0.55, ""Source3"": 0.65}",40,6,6,6,3344.60000000149,red,0,6,0,js-scroll-button-response,401,1,5,198,50           55           65           65           50           65,redblueblueredredred,1  0  0  1  1  1,2,2
11696498,Button0Red,1,"{""Source1"": 0.50, ""Source2"": 0.55, ""Source3"": 0.65}",40,6,6,6,3474.10000000149,red,1,6,0,js-scroll-button-response,403,0,5,199,65           50           65           55           65           65,redblueblueblueredblue,1  0  0  0  1  0,2,2
11696498,Button0Red,1,"{""Source1"": 0.50, ""Source2"": 0.55, ""Source3"": 0.65}",40,6,6,6,3805.20000000298,red,0,6,0,js-scroll-button-response,405,1,5,200,65           55           65           50           65           50,redredredredblueblue,1  1  1  1  0  0,2,2
11696498,Button0Red,1,"{""Source1"": 0.50, ""Source2"": 0.55, ""Source3"": 0.65}",40,6,6,6,4573.5,red,1,6,0,js-scroll-button-response,408,0,6,201,50           55           50           65           55           50,redblueblueblueredblue,1  0  0  0  1  0,2,2
11696498,Button0Red,1,"{""Source1"": 0.50, ""Source2"": 0.55, ""Source3"": 0.65}",40,6,6,6,3672.89999999851,blue,0,6,1,js-scroll-button-response,410,0,6,202,50           50           55           65           55           55,redblueblueredbluered,1  0  0  1  0  1,2,2
11696498,Button0Red,1,"{""Source1"": 0.50, ""Source2"": 0.55, ""Source3"": 0.65}",40,6,6,6,3595.10000000149,blue,1,6,1,js-scroll-button-response,412,1,6,203,50           50           50           55           55           65,blueredblueblueredblue,0  1  0  0  1  0,2,2
11696498,Button0Red,1,"{""Source1"": 0.50, ""Source2"": 0.55, ""Source3"": 0.65}",40,6,6,6,4144.5,red,1,6,0,js-scroll-button-response,414,0,6,204,55           65           50           55           55           50,redredredblueblueblue,1  1  1  0  0  0,2,2
11696498,Button0Red,1,"{""Source1"": 0.50, ""Source2"": 0.55, ""Source3"": 0.65}",40,6,6,6,3874.70000000298,red,0,6,0,js-scroll-button-response,416,1,6,205,65           65           50           65           65           55,blueredblueredredred,0  1  0  1  1  1,2,2
11696498,Button0Red,1,"{""Source1"": 0.50, ""Source2"": 0.55, ""Source3"": 0.65}",40,6,6,6,3227.10000000149,blue,1,6,1,js-scroll-button-response,418,1,6,206,65  50  50  50  65  50,blueredredblueblueblue,0  1  1  0  0  0,2,2
11696498,Button0Red,1,"{""Source1"": 0.50, ""Source2"": 0.55, ""Source3"": 0.65}",40,6,6,6,3590.60000000149,red,0,6,0,js-scroll-button-response,420,1,6,207,55           55           65           65           50           50,blueredredbluebluered,0  1  1  0  0  1,2,2
11696498,Button0Red,1,"{""Source1"": 0.50, ""Source2"": 0.55, ""Source3"": 0.65}",40,6,6,6,15366.6999999993,red,0,6,0,js-scroll-button-response,422,1,6,208,50           55           65           65           65           50,redredredredbluered,1  1  1  1  0  1,2,2
11696498,Button0Red,1,"{""Source1"": 0.50, ""Source2"": 0.55, ""Source3"": 0.65}",40,6,6,6,4050.39999999851,red,0,6,0,js-scroll-button-response,424,1,6,209,50           50           65           50           65           55,redredbluebluebluered,1  1  0  0  0  1,2,2
11696498,Button0Red,1,"{""Source1"": 0.50, ""Source2"": 0.55, ""Source3"": 0.65}",40,6,6,6,3933.59999999776,red,1,6,0,js-scroll-button-response,426,0,6,210,65           55           55           65           65           65,redredredredredblue,1  1  1  1  1  0,2,2
11696498,Button0Red,1,"{""Source1"": 0.50, ""Source2"": 0.55, ""Source3"": 0.65}",40,6,6,6,3461.30000000075,blue,0,6,1,js-scroll-button-response,428,0,6,211,55           55           65           55           50           65,blueredredredbluered,0  1  1  1  0  1,2,2
11696498,Button0Red,1,"{""Source1"": 0.50, ""Source2"": 0.55, ""Source3"": 0.65}",40,6,6,6,3478,red,0,6,0,js-scroll-button-response,430,1,6,212,55           50           55           65           55           65,redredblueredbluered,1  1  0  1  0  1,2,2
11696498,Button0Red,1,"{""Source1"": 0.50, ""Source2"": 0.55, ""Source3"": 0.65}",40,6,6,6,3857.69999999925,red,0,6,0,js-scroll-button-response,432,1,6,213,55           50           50           55           50           55,blueblueblueblueredred,0  0  0  0  1  1,2,2
11696498,Button0Red,1,"{""Source1"": 0.50, ""Source2"": 0.55, ""Source3"": 0.65}",40,6,6,6,5339.09999999776,blue,0,6,1,js-scroll-button-response,434,0,6,214,55           55           50           55           50           65,blueredredbluebluered,0  1  1  0  0  1,2,2
11696498,Button0Red,1,"{""Source1"": 0.50, ""Source2"": 0.55, ""Source3"": 0.65}",40,6,6,6,4141.09999999776,red,0,6,0,js-scroll-button-response,436,1,6,215,50           55           55           50           55           50,redredblueblueredred,1  1  0  0  1  1,2,2
11696498,Button0Red,1,"{""Source1"": 0.50, ""Source2"": 0.55, ""Source3"": 0.65}",40,6,6,6,3378.30000000075,red,0,6,0,js-scroll-button-response,438,1,6,216,50           65           65           50           55           50,blueredblueredbluered,0  1  0  1  0  1,2,2
11696498,Button0Red,1,"{""Source1"": 0.50, ""Source2"": 0.55, ""Source3"": 0.65}",40,6,6,6,3018.30000000075,red,0,6,0,js-scroll-button-response,440,1,6,217,65           55           50           55           65           65,redblueredredredblue,1  0  1  1  1  0,2,2
11696498,Button0Red,1,"{""Source1"": 0.50, ""Source2"": 0.55, ""Source3"": 0.65}",40,6,6,6,3888.60000000149,red,0,6,0,js-scroll-button-response,442,1,6,218,65           50           55           65           65           65,redblueblueredbluered,1  0  0  1  0  1,2,2
11696498,Button0Red,1,"{""Source1"": 0.50, ""Source2"": 0.55, ""Source3"": 0.65}",40,6,6,6,4848.29999999702,blue,1,6,1,js-scroll-button-response,444,1,6,219,65           55           65           55           50           65,blueblueblueblueredblue,0  0  0  0  1  0,2,2
11696498,Button0Red,1,"{""Source1"": 0.50, ""Source2"": 0.55, ""Source3"": 0.65}",40,6,6,6,3457.10000000149,blue,0,6,1,js-scroll-button-response,446,0,6,220,50           65           55           50           50           50,blueblueredblueredred,0  0  1  0  1  1,2,2
11696498,Button0Red,1,"{""Source1"": 0.50, ""Source2"": 0.55, ""Source3"": 0.65}",40,6,6,6,4428,blue,0,6,1,js-scroll-button-response,448,0,6,221,55           50           50           55           65           65,blueredblueblueredred,0  1  0  0  1  1,2,2
11696498,Button0Red,1,"{""Source1"": 0.50, ""Source2"": 0.55, ""Source3"": 0.65}",40,6,6,6,4454.80000000075,red,1,6,0,js-scroll-button-response,450,0,6,222,65           55           55           55           50           65,blueredblueredblueblue,0  1  0  1  0  0,2,2
11696498,Button0Red,1,"{""Source1"": 0.50, ""Source2"": 0.55, ""Source3"": 0.65}",40,6,6,6,3707.19999999925,blue,1,6,1,js-scroll-button-response,452,1,6,223,55           55           50           65           50           50,redblueblueblueblueblue,1  0  0  0  0  0,2,2
11696498,Button0Red,1,"{""Source1"": 0.50, ""Source2"": 0.55, ""Source3"": 0.65}",40,6,6,6,3676.80000000075,blue,0,6,1,js-scroll-button-response,454,0,6,224,55           65           65           65           50           55,blueblueredbluebluered,0  0  1  0  0  1,2,2
11696498,Button0Red,1,"{""Source1"": 0.50, ""Source2"": 0.55, ""Source3"": 0.65}",40,6,6,6,3487.89999999851,red,0,6,0,js-scroll-button-response,456,1,6,225,65           55           65           65           55           50,redblueblueredredred,1  0  0  1  1  1,2,2
11696498,Button0Red,1,"{""Source1"": 0.50, ""Source2"": 0.55, ""Source3"": 0.65}",40,6,6,6,4031.30000000075,red,0,6,0,js-scroll-button-response,458,1,6,226,55           55           55           55           55           55,blueredredredbluered,0  1  1  1  0  1,2,2
11696498,Button0Red,1,"{""Source1"": 0.50, ""Source2"": 0.55, ""Source3"": 0.65}",40,6,6,6,4072,red,1,6,0,js-scroll-button-response,460,0,6,227,50           55           50           55           50           55,blueredbluebluebluered,0  1  0  0  0  1,2,2
11696498,Button0Red,1,"{""Source1"": 0.50, ""Source2"": 0.55, ""Source3"": 0.65}",40,6,6,6,4060.5,blue,1,6,1,js-scroll-button-response,462,1,6,228,55           55           50           50           55           55,blueredredblueredblue,0  1  1  0  1  0,2,2
11696498,Button0Red,1,"{""Source1"": 0.50, ""Source2"": 0.55, ""Source3"": 0.65}",40,6,6,6,3852.69999999925,red,0,6,0,js-scroll-button-response,464,1,6,229,50           55           65           50           55           55,blueredredredredred,0  1  1  1  1  1,2,2
11696498,Button0Red,1,"{""Source1"": 0.50, ""Source2"": 0.55, ""Source3"": 0.65}",40,6,6,6,4086.90000000224,red,0,6,0,js-scroll-button-response,466,1,6,230,55           50           50           50           50           55,redblueredbluebluered,1  0  1  0  0  1,2,2
11696498,Button0Red,1,"{""Source1"": 0.50, ""Source2"": 0.55, ""Source3"": 0.65}",40,6,6,6,3545.19999999925,blue,1,6,1,js-scroll-button-response,468,1,6,231,65           65           50           55           50           65,redblueredblueblueblue,1  0  1  0  0  0,2,2
11696498,Button0Red,1,"{""Source1"": 0.50, ""Source2"": 0.55, ""Source3"": 0.65}",40,6,6,6,3565.39999999851,red,0,6,0,js-scroll-button-response,470,1,6,232,50           55           55           65           55           65,blueblueblueredbluered,0  0  0  1  0  1,2,2
11696498,Button0Red,1,"{""Source1"": 0.50, ""Source2"": 0.55, ""Source3"": 0.65}",40,6,6,6,3838.19999999925,red,0,6,0,js-scroll-button-response,472,1,6,233,55           65           55           55           55           55,redblueredblueredred,1  0  1  0  1  1,2,2
11696498,Button0Red,1,"{""Source1"": 0.50, ""Source2"": 0.55, ""Source3"": 0.65}",40,6,6,6,3566.70000000298,red,0,6,0,js-scroll-button-response,474,1,6,234,65           55           65           55           65           50,redredredredbluered,1  1  1  1  0  1,2,2
11696498,Button0Red,1,"{""Source1"": 0.50, ""Source2"": 0.55, ""Source3"": 0.65}",40,6,6,6,3691.39999999851,red,1,6,0,js-scroll-button-response,476,0,6,235,65           50           55           55           55           55,blueblueredredredblue,0  0  1  1  1  0,2,2
11696498,Button0Red,1,"{""Source1"": 0.50, ""Source2"": 0.55, ""Source3"": 0.65}",40,6,6,6,3368.30000000075,blue,1,6,1,js-scroll-button-response,478,1,6,236,65           65           50           55           55           50,blueblueredblueredblue,0  0  1  0  1  0,2,2
11696498,Button0Red,1,"{""Source1"": 0.50, ""Source2"": 0.55, ""Source3"": 0.65}",40,6,6,6,3487.19999999925,red,0,6,0,js-scroll-button-response,480,1,6,237,65           55           50           65           50           55,redredblueredredred,1  1  0  1  1  1,2,2
11696498,Button0Red,1,"{""Source1"": 0.50, ""Source2"": 0.55, ""Source3"": 0.65}",40,6,6,6,4358,red,0,6,0,js-scroll-button-response,482,1,6,238,50  65  50  50  50  65,redredblueredbluered,1  1  0  1  0  1,2,2
11696498,Button0Red,1,"{""Source1"": 0.50, ""Source2"": 0.55, ""Source3"": 0.65}",40,6,6,6,3889.5,blue,1,6,1,js-scroll-button-response,484,1,6,239,55           65           65           65           55           50,blueredblueredredblue,0  1  0  1  1  0,2,2
11696498,Button0Red,1,"{""Source1"": 0.50, ""Source2"": 0.55, ""Source3"": 0.65}",40,6,6,6,3642.80000000075,red,1,6,0,js-scroll-button-response,486,0,6,240,55           65           50           65           55           65,blueredblueredredblue,0  1  0  1  1  0,2,2
11696510,Button0Blue,0,"{""Source1"": 0.50, ""Source2"": 0.55, ""Source3"": 0.65}",40,6,6,6,16522.5,red,1,6,1,js-scroll-button-response,3,1,1,1,55           50           55           65           55           55,blueredredredbluered,1  0  0  0  1  0,1,0
11696510,Button0Blue,0,"{""Source1"": 0.50, ""Source2"": 0.55, ""Source3"": 0.65}",40,6,6,6,10607.5999999046,blue,0,6,0,js-scroll-button-response,5,1,1,2,55           55           55           50           65           50,blueredblueredredblue,1  0  1  0  0  1,1,0
11696510,Button0Blue,0,"{""Source1"": 0.50, ""Source2"": 0.55, ""Source3"": 0.65}",40,6,6,6,10687,blue,1,6,0,js-scroll-button-response,7,0,1,3,65           55           55           65           50           55,blueblueredredredblue,1  1  0  0  0  1,1,0
11696510,Button0Blue,0,"{""Source1"": 0.50, ""Source2"": 0.55, ""Source3"": 0.65}",40,6,6,6,7890.60000014305,blue,0,6,0,js-scroll-button-response,9,1,1,4,65           65           55           55           50           65,blueredblueredblueblue,1  0  1  0  1  1,1,0
11696510,Button0Blue,0,"{""Source1"": 0.50, ""Source2"": 0.55, ""Source3"": 0.65}",40,6,6,6,7596.59999990463,blue,0,6,0,js-scroll-button-response,11,1,1,5,65           50           65           55           55           50,blueblueblueblueredred,1  1  1  1  0  0,1,0
11696510,Button0Blue,0,"{""Source1"": 0.50, ""Source2"": 0.55, ""Source3"": 0.65}",40,6,6,6,6277.29999995232,blue,0,6,0,js-scroll-button-response,13,1,1,6,50           65           55           55           55           65,redblueblueblueredblue,0  1  1  1  0  1,1,0
11696510,Button0Blue,0,"{""Source1"": 0.50, ""Source2"": 0.55, ""Source3"": 0.65}",40,6,6,6,6227.5,red,0,6,1,js-scroll-button-response,15,0,1,7,55           65           55           50           50           50,blueblueredredredblue,1  1  0  0  0  1,1,0
11696510,Button0Blue,0,"{""Source1"": 0.50, ""Source2"": 0.55, ""Source3"": 0.65}",40,6,6,6,5568.19999980927,blue,1,6,0,js-scroll-button-response,17,0,1,8,65           50           55           65           55           65,redredredredredblue,0  0  0  0  0  1,1,0
11696510,Button0Blue,0,"{""Source1"": 0.50, ""Source2"": 0.55, ""Source3"": 0.65}",40,6,6,6,11751.5,blue,1,6,0,js-scroll-button-response,19,0,1,9,65           55           50           50           50           50,redblueredredredred,0  1  0  0  0  0,1,0
11696510,Button0Blue,0,"{""Source1"": 0.50, ""Source2"": 0.55, ""Source3"": 0.65}",40,6,6,6,7540.5,blue,0,6,0,js-scroll-button-response,21,1,1,10,55           55           50           65           50           50,bluebluebluebluebluered,1  1  1  1  1  0,1,0
11696510,Button0Blue,0,"{""Source1"": 0.50, ""Source2"": 0.55, ""Source3"": 0.65}",40,6,6,6,7240.5,red,1,6,1,js-scroll-button-response,23,1,1,11,50           55           55           55           50           50,redredredredblueblue,0  0  0  0  1  1,1,0
11696510,Button0Blue,0,"{""Source1"": 0.50, ""Source2"": 0.55, ""Source3"": 0.65}",40,6,6,6,6446.39999985695,blue,0,6,0,js-scroll-button-response,25,1,1,12,65           65           50           55           55           55,blueblueblueredblueblue,1  1  1  0  1  1,1,0
11696510,Button0Blue,0,"{""Source1"": 0.50, ""Source2"": 0.55, ""Source3"": 0.65}",40,6,6,6,5511.70000004768,red,1,6,1,js-scroll-button-response,27,1,1,13,65           50           65           65           55           55,blueblueblueredredred,1  1  1  0  0  0,1,0
11696510,Button0Blue,0,"{""Source1"": 0.50, ""Source2"": 0.55, ""Source3"": 0.65}",40,6,6,6,7124.70000004768,blue,1,6,0,js-scroll-button-response,29,0,1,14,50           50           65           55           50           65,blueredredredredblue,1  0  0  0  0  1,1,0
11696510,Button0Blue,0,"{""Source1"": 0.50, ""Source2"": 0.55, ""Source3"": 0.65}",40,6,6,6,7200.59999990463,red,1,6,1,js-scroll-button-response,31,1,1,15,65           55           65           55           65           50,redblueblueredredred,0  1  1  0  0  0,1,0
11696510,Button0Blue,0,"{""Source1"": 0.50, ""Source2"": 0.55, ""Source3"": 0.65}",40,6,6,6,6072,blue,0,6,0,js-scroll-button-response,33,1,1,16,65           55           65           65           50           50,blueblueredblueblueblue,1  1  0  1  1  1,1,0
11696510,Button0Blue,0,"{""Source1"": 0.50, ""Source2"": 0.55, ""Source3"": 0.65}",40,6,6,6,6076.79999995232,red,1,6,1,js-scroll-button-response,35,1,1,17,50           55           65           55           50           65,redblueredredbluered,0  1  0  0  1  0,1,0
11696510,Button0Blue,0,"{""Source1"": 0.50, ""Source2"": 0.55, ""Source3"": 0.65}",40,6,6,6,6622.09999990463,blue,0,6,0,js-scroll-button-response,37,1,1,18,65           65           50           50           50           55,blueblueblueredredred,1  1  1  0  0  0,1,0
11696510,Button0Blue,0,"{""Source1"": 0.50, ""Source2"": 0.55, ""Source3"": 0.65}",40,6,6,6,6480.79999995232,blue,1,6,0,js-scroll-button-response,39,0,1,19,50           65           55           55           65           65,redredblueblueredblue,0  0  1  1  0  1,1,0
11696510,Button0Blue,0,"{""Source1"": 0.50, ""Source2"": 0.55, ""Source3"": 0.65}",40,6,6,6,6400.20000004768,red,1,6,1,js-scroll-button-response,41,1,1,20,55           55           65           65           55           65,blueblueredbluebluered,1  1  0  1  1  0,1,0
11696510,Button0Blue,0,"{""Source1"": 0.50, ""Source2"": 0.55, ""Source3"": 0.65}",40,6,6,6,6151.90000009537,blue,1,6,0,js-scroll-button-response,43,0,1,21,65           55           50           55           50           50,redredredblueblueblue,0  0  0  1  1  1,1,0
11696510,Button0Blue,0,"{""Source1"": 0.50, ""Source2"": 0.55, ""Source3"": 0.65}",40,6,6,6,4911.20000004768,red,0,6,1,js-scroll-button-response,45,0,1,22,55           55           65           55           65           55,redbluebluebluebluered,0  1  1  1  1  0,1,0
11696510,Button0Blue,0,"{""Source1"": 0.50, ""Source2"": 0.55, ""Source3"": 0.65}",40,6,6,6,5032.5,red,1,6,1,js-scroll-button-response,47,1,1,23,65           55           50           65           65           65,redblueredredredred,0  1  0  0  0  0,1,0
11696510,Button0Blue,0,"{""Source1"": 0.50, ""Source2"": 0.55, ""Source3"": 0.65}",40,6,6,6,5744.29999995232,blue,1,6,0,js-scroll-button-response,49,0,1,24,55           55           55           50           55           50,redredblueredredblue,0  0  1  0  0  1,1,0
11696510,Button0Blue,0,"{""Source1"": 0.50, ""Source2"": 0.55, ""Source3"": 0.65}",40,6,6,6,5110.29999995232,red,0,6,1,js-scroll-button-response,51,0,1,25,55           55           50           55           50           50,blueredblueblueredred,1  0  1  1  0  0,1,0
11696510,Button0Blue,0,"{""Source1"": 0.50, ""Source2"": 0.55, ""Source3"": 0.65}",40,6,6,6,5736.90000009537,red,1,6,1,js-scroll-button-response,53,1,1,26,55           65           55           65           65           65,redredblueredbluered,0  0  1  0  1  0,1,0
11696510,Button0Blue,0,"{""Source1"": 0.50, ""Source2"": 0.55, ""Source3"": 0.65}",40,6,6,6,6075.40000009537,blue,0,6,0,js-scroll-button-response,55,1,1,27,65           55           65           50           50           50,redbluebluebluebluered,0  1  1  1  1  0,1,0
11696510,Button0Blue,0,"{""Source1"": 0.50, ""Source2"": 0.55, ""Source3"": 0.65}",40,6,6,6,5386.39999985695,blue,1,6,0,js-scroll-button-response,57,0,1,28,50           50           55           50           50           65,blueredblueredredred,1  0  1  0  0  0,1,0
11696510,Button0Blue,0,"{""Source1"": 0.50, ""Source2"": 0.55, ""Source3"": 0.65}",40,6,6,6,4774.70000004768,blue,0,6,0,js-scroll-button-response,59,1,1,29,65           55           65           65           50           65,bluebluebluebluebluered,1  1  1  1  1  0,1,0
11696510,Button0Blue,0,"{""Source1"": 0.50, ""Source2"": 0.55, ""Source3"": 0.65}",40,6,6,6,4647.5,red,1,6,1,js-scroll-button-response,61,1,1,30,65           55           65           50           65           55,blueredredredredblue,1  0  0  0  0  1,1,0
11696510,Button0Blue,0,"{""Source1"": 0.50, ""Source2"": 0.55, ""Source3"": 0.65}",40,6,6,6,5842.10000014305,red,1,6,1,js-scroll-button-response,63,1,1,31,55           65           55           50           65           65,blueredredbluebluered,1  0  0  1  1  0,1,0
11696510,Button0Blue,0,"{""Source1"": 0.50, ""Source2"": 0.55, ""Source3"": 0.65}",40,6,6,6,5312.90000009537,red,0,6,1,js-scroll-button-response,65,0,1,32,50           55           65           65           55           65,blueredredblueblueblue,1  0  0  1  1  1,1,0
11696510,Button0Blue,0,"{""Source1"": 0.50, ""Source2"": 0.55, ""Source3"": 0.65}",40,6,6,6,5942.09999990463,blue,1,6,0,js-scroll-button-response,67,0,1,33,55           50           65           55           65           50,blueredredredbluered,1  0  0  0  1  0,1,0
11696510,Button0Blue,0,"{""Source1"": 0.50, ""Source2"": 0.55, ""Source3"": 0.65}",40,6,6,6,5717.59999990463,blue,0,6,0,js-scroll-button-response,69,1,1,34,50           50           65           55           55           65,redredblueblueblueblue,0  0  1  1  1  1,1,0
11696510,Button0Blue,0,"{""Source1"": 0.50, ""Source2"": 0.55, ""Source3"": 0.65}",40,6,6,6,12279,blue,0,6,0,js-scroll-button-response,71,1,1,35,65           50           55           50           55           55,blueblueredblueredblue,1  1  0  1  0  1,1,0
11696510,Button0Blue,0,"{""Source1"": 0.50, ""Source2"": 0.55, ""Source3"": 0.65}",40,6,6,6,4975.20000004768,blue,1,6,0,js-scroll-button-response,73,0,1,36,55           50           55           55           55           50,redredredblueredred,0  0  0  1  0  0,1,0
11696510,Button0Blue,0,"{""Source1"": 0.50, ""Source2"": 0.55, ""Source3"": 0.65}",40,6,6,6,4425.20000004768,blue,1,6,0,js-scroll-button-response,75,0,1,37,65           55           50           55           50           55,redblueblueredredblue,0  1  1  0  0  1,1,0
11696510,Button0Blue,0,"{""Source1"": 0.50, ""Source2"": 0.55, ""Source3"": 0.65}",40,6,6,6,4663.29999995232,blue,0,6,0,js-scroll-button-response,77,1,1,38,50           65           65           55           50           65,redredblueblueblueblue,0  0  1  1  1  1,1,0
11696510,Button0Blue,0,"{""Source1"": 0.50, ""Source2"": 0.55, ""Source3"": 0.65}",40,6,6,6,4216.5,blue,0,6,0,js-scroll-button-response,79,1,1,39,55           65           55           65           55           50,redblueredbluebluered,0  1  0  1  1  0,1,0
11696510,Button0Blue,0,"{""Source1"": 0.50, ""Source2"": 0.55, ""Source3"": 0.65}",40,6,6,6,5240.70000004768,blue,1,6,0,js-scroll-button-response,81,0,1,40,50           50           65           55           65           50,redblueblueredredred,0  1  1  0  0  0,1,0
11696510,Button0Blue,0,"{""Source1"": 0.50, ""Source2"": 0.55, ""Source3"": 0.65}",40,6,6,6,5956.5,blue,0,6,0,js-scroll-button-response,84,1,2,41,65           50           55           50           50           55,blueblueblueblueredblue,1  1  1  1  0  1,1,0
11696510,Button0Blue,0,"{""Source1"": 0.50, ""Source2"": 0.55, ""Source3"": 0.65}",40,6,6,6,3628.80000019073,red,1,6,1,js-scroll-button-response,86,1,2,42,50           50           65           65           55           65,redredredredredred,0  0  0  0  0  0,1,0
11696510,Button0Blue,0,"{""Source1"": 0.50, ""Source2"": 0.55, ""Source3"": 0.65}",40,6,6,6,4144.5,blue,0,6,0,js-scroll-button-response,88,1,2,43,55           55           55           65           65           65,blueredblueblueredred,1  0  1  1  0  0,1,0
11696510,Button0Blue,0,"{""Source1"": 0.50, ""Source2"": 0.55, ""Source3"": 0.65}",40,6,6,6,3932.10000014305,blue,1,6,0,js-scroll-button-response,90,0,2,44,50           65           65           55           65           50,redredblueredredblue,0  0  1  0  0  1,1,0
11696510,Button0Blue,0,"{""Source1"": 0.50, ""Source2"": 0.55, ""Source3"": 0.65}",40,6,6,6,4222.5,blue,0,6,0,js-scroll-button-response,92,1,2,45,65           55           50           50           55           65,blueblueredredblueblue,1  1  0  0  1  1,1,0
11696510,Button0Blue,0,"{""Source1"": 0.50, ""Source2"": 0.55, ""Source3"": 0.65}",40,6,6,6,5864.59999990463,red,1,6,1,js-scroll-button-response,94,1,2,46,65           50           65           65           55           65,redredblueredredred,0  0  1  0  0  0,1,0
11696510,Button0Blue,0,"{""Source1"": 0.50, ""Source2"": 0.55, ""Source3"": 0.65}",40,6,6,6,5727.20000004768,blue,0,6,0,js-scroll-button-response,96,1,2,47,65           50           50           55           50           55,blueblueredblueredblue,1  1  0  1  0  1,1,0
11696510,Button0Blue,0,"{""Source1"": 0.50, ""Source2"": 0.55, ""Source3"": 0.65}",40,6,6,6,34456.9000000954,blue,1,6,0,js-scroll-button-response,98,0,2,48,65           65           50           50           55           50,blueblueblueredbluered,1  1  1  0  1  0,1,0
11696510,Button0Blue,0,"{""Source1"": 0.50, ""Source2"": 0.55, ""Source3"": 0.65}",40,6,6,6,4260.70000004768,red,1,6,1,js-scroll-button-response,100,1,2,49,50           55           65           50           65           50,redblueredblueredred,0  1  0  1  0  0,1,0
11696510,Button0Blue,0,"{""Source1"": 0.50, ""Source2"": 0.55, ""Source3"": 0.65}",40,6,6,6,4791.40000009537,blue,1,6,0,js-scroll-button-response,102,0,2,50,50           65           50           55           55           65,redredredredblueblue,0  0  0  0  1  1,1,0
11696510,Button0Blue,0,"{""Source1"": 0.50, ""Source2"": 0.55, ""Source3"": 0.65}",40,6,6,6,4199,blue,0,6,0,js-scroll-button-response,104,1,2,51,65           65           65           55           50           65,redblueblueredredblue,0  1  1  0  0  1,1,0
11696510,Button0Blue,0,"{""Source1"": 0.50, ""Source2"": 0.55, ""Source3"": 0.65}",40,6,6,6,3767.60000014305,blue,0,6,0,js-scroll-button-response,106,1,2,52,65           55           65           65           65           55,redblueblueblueblueblue,0  1  1  1  1  1,1,0
11696510,Button0Blue,0,"{""Source1"": 0.50, ""Source2"": 0.55, ""Source3"": 0.65}",40,6,6,6,4112.5,red,0,6,1,js-scroll-button-response,108,0,2,53,65           50           50           55           55           65,redblueredredbluered,0  1  0  0  1  0,1,0
11696510,Button0Blue,0,"{""Source1"": 0.50, ""Source2"": 0.55, ""Source3"": 0.65}",40,6,6,6,171981.299999952,red,1,6,1,js-scroll-button-response,110,1,2,54,65           50           65           50           55           55,blueredredblueredblue,1  0  0  1  0  1,1,0
11696510,Button0Blue,0,"{""Source1"": 0.50, ""Source2"": 0.55, ""Source3"": 0.65}",40,6,6,6,3254,blue,0,6,0,js-scroll-button-response,112,1,2,55,65           65           65           50           55           65,blueredblueblueblueblue,1  0  1  1  1  1,1,0
11696510,Button0Blue,0,"{""Source1"": 0.50, ""Source2"": 0.55, ""Source3"": 0.65}",40,6,6,6,7383.10000014305,red,1,6,1,js-scroll-button-response,114,1,2,56,65           50           55           50           55           55,blueblueredredblueblue,1  1  0  0  1  1,1,0
11696510,Button0Blue,0,"{""Source1"": 0.50, ""Source2"": 0.55, ""Source3"": 0.65}",40,6,6,6,3422.5,blue,0,6,0,js-scroll-button-response,116,1,2,57,50           50           65           65           55           50,blueblueredblueblueblue,1  1  0  1  1  1,1,0
11696510,Button0Blue,0,"{""Source1"": 0.50, ""Source2"": 0.55, ""Source3"": 0.65}",40,6,6,6,3488,blue,0,6,0,js-scroll-button-response,118,1,2,58,55           50           55           65           50           55,blueblueblueredbluered,1  1  1  0  1  0,1,0
11696510,Button0Blue,0,"{""Source1"": 0.50, ""Source2"": 0.55, ""Source3"": 0.65}",40,6,6,6,4366,blue,1,6,0,js-scroll-button-response,120,0,2,59,50  50  50  50  65  65,redblueblueredbluered,0  1  1  0  1  0,1,0
11696510,Button0Blue,0,"{""Source1"": 0.50, ""Source2"": 0.55, ""Source3"": 0.65}",40,6,6,6,3600.20000004768,red,1,6,1,js-scroll-button-response,122,1,2,60,65           55           55           55           50           50,redredblueredredred,0  0  1  0  0  0,1,0
11696510,Button0Blue,0,"{""Source1"": 0.50, ""Source2"": 0.55, ""Source3"": 0.65}",40,6,6,6,11974.5,blue,1,6,0,js-scroll-button-response,124,0,2,61,65           50           50           55           55           50,redredredbluebluered,0  0  0  1  1  0,1,0
11696510,Button0Blue,0,"{""Source1"": 0.50, ""Source2"": 0.55, ""Source3"": 0.65}",40,6,6,6,4713.40000009537,blue,0,6,0,js-scroll-button-response,126,1,2,62,55           55           50           50           50           50,redblueredredblueblue,0  1  0  0  1  1,1,0
11696510,Button0Blue,0,"{""Source1"": 0.50, ""Source2"": 0.55, ""Source3"": 0.65}",40,6,6,6,3819.79999995232,red,1,6,1,js-scroll-button-response,128,1,2,63,50           50           55           55           65           55,blueredredredredblue,1  0  0  0  0  1,1,0
11696510,Button0Blue,0,"{""Source1"": 0.50, ""Source2"": 0.55, ""Source3"": 0.65}",40,6,6,6,3630.10000014305,blue,0,6,0,js-scroll-button-response,130,1,2,64,65           55           55           55           50           50,blueredredbluebluered,1  0  0  1  1  0,1,0
11696510,Button0Blue,0,"{""Source1"": 0.50, ""Source2"": 0.55, ""Source3"": 0.65}",40,6,6,6,4030.79999995232,blue,0,6,0,js-scroll-button-response,132,1,2,65,55           50           65           65           65           50,blueredblueredblueblue,1  0  1  0  1  1,1,0
11696510,Button0Blue,0,"{""Source1"": 0.50, ""Source2"": 0.55, ""Source3"": 0.65}",40,6,6,6,250871.700000048,blue,0,6,0,js-scroll-button-response,134,1,2,66,65           55           50           50           65           50,blueredblueblueredblue,1  0  1  1  0  1,1,0
11696510,Button0Blue,0,"{""Source1"": 0.50, ""Source2"": 0.55, ""Source3"": 0.65}",40,6,6,6,4061.09999990463,blue,0,6,0,js-scroll-button-response,136,1,2,67,65           50           55           55           50           65,blueredblueblueredred,1  0  1  1  0  0,1,0
11696510,Button0Blue,0,"{""Source1"": 0.50, ""Source2"": 0.55, ""Source3"": 0.65}",40,6,6,6,3257.5,blue,0,6,0,js-scroll-button-response,138,1,2,68,50           55           55           50           65           50,bluebluebluebluebluered,1  1  1  1  1  0,1,0
11696510,Button0Blue,0,"{""Source1"": 0.50, ""Source2"": 0.55, ""Source3"": 0.65}",40,6,6,6,4119.89999985695,red,0,6,1,js-scroll-button-response,140,0,2,69,50           65           55           55           55           55,redblueblueredredblue,0  1  1  0  0  1,1,0
11696510,Button0Blue,0,"{""Source1"": 0.50, ""Source2"": 0.55, ""Source3"": 0.65}",40,6,6,6,4100.59999990463,blue,1,6,0,js-scroll-button-response,142,0,2,70,55           55           50           65           55           65,redredbluebluebluered,0  0  1  1  1  0,1,0
11696510,Button0Blue,0,"{""Source1"": 0.50, ""Source2"": 0.55, ""Source3"": 0.65}",40,6,6,6,5575.20000004768,blue,0,6,0,js-scroll-button-response,144,1,2,71,50  65  50  50  65  50,redredblueblueredblue,0  0  1  1  0  1,1,0
11696510,Button0Blue,0,"{""Source1"": 0.50, ""Source2"": 0.55, ""Source3"": 0.65}",40,6,6,6,4117.29999995232,blue,0,6,0,js-scroll-button-response,146,1,2,72,55           65           50           50           55           55,blueblueredblueblueblue,1  1  0  1  1  1,1,0
11696510,Button0Blue,0,"{""Source1"": 0.50, ""Source2"": 0.55, ""Source3"": 0.65}",40,6,6,6,4998.89999985695,red,0,6,1,js-scroll-button-response,148,0,2,73,65           65           55           65           50           55,redblueredredbluered,0  1  0  0  1  0,1,0
11696510,Button0Blue,0,"{""Source1"": 0.50, ""Source2"": 0.55, ""Source3"": 0.65}",40,6,6,6,3735.89999985695,blue,1,6,0,js-scroll-button-response,150,0,2,74,50           65           55           55           65           55,redredredredbluered,0  0  0  0  1  0,1,0
11696510,Button0Blue,0,"{""Source1"": 0.50, ""Source2"": 0.55, ""Source3"": 0.65}",40,6,6,6,256984.800000191,red,1,6,1,js-scroll-button-response,152,1,2,75,55           55           50           55           55           65,redblueredbluebluered,0  1  0  1  1  0,1,0
11696510,Button0Blue,0,"{""Source1"": 0.50, ""Source2"": 0.55, ""Source3"": 0.65}",40,6,6,6,5543.90000009537,blue,0,6,0,js-scroll-button-response,154,1,2,76,50  50  50  50  65  50,redblueredblueblueblue,0  1  0  1  1  1,1,0
11696510,Button0Blue,0,"{""Source1"": 0.50, ""Source2"": 0.55, ""Source3"": 0.65}",40,6,6,6,3863.90000009537,blue,0,6,0,js-scroll-button-response,156,1,2,77,50  50  50  50  50  65,blueredblueblueblueblue,1  0  1  1  1  1,1,0
11696510,Button0Blue,0,"{""Source1"": 0.50, ""Source2"": 0.55, ""Source3"": 0.65}",40,6,6,6,3872.09999990463,red,0,6,1,js-scroll-button-response,158,0,2,78,50           65           50           55           55           55,blueredblueblueblueblue,1  0  1  1  1  1,1,0
11696510,Button0Blue,0,"{""Source1"": 0.50, ""Source2"": 0.55, ""Source3"": 0.65}",40,6,6,6,4534.20000004768,red,1,6,1,js-scroll-button-response,160,1,2,79,55           50           65           55           55           55,blueredredblueredred,1  0  0  1  0  0,1,0
11696510,Button0Blue,0,"{""Source1"": 0.50, ""Source2"": 0.55, ""Source3"": 0.65}",40,6,6,6,4175.70000004768,red,0,6,1,js-scroll-button-response,162,0,2,80,55           55           65           55           65           65,blueblueredredbluered,1  1  0  0  1  0,1,0
11696510,Button0Blue,0,"{""Source1"": 0.50, ""Source2"": 0.55, ""Source3"": 0.65}",40,6,6,6,4749.70000004768,blue,0,6,0,js-scroll-button-response,165,1,3,81,55           55           55           65           50           65,blueblueblueredredblue,1  1  1  0  0  1,1,0
11696510,Button0Blue,0,"{""Source1"": 0.50, ""Source2"": 0.55, ""Source3"": 0.65}",40,6,6,6,3368.79999995232,blue,0,6,0,js-scroll-button-response,167,1,3,82,50           50           55           50           65           55,redredblueblueblueblue,0  0  1  1  1  1,1,0
11696510,Button0Blue,0,"{""Source1"": 0.50, ""Source2"": 0.55, ""Source3"": 0.65}",40,6,6,6,3224.39999985695,blue,1,6,0,js-scroll-button-response,169,0,3,83,65           50           55           50           65           50,redredredredredred,0  0  0  0  0  0,1,0
11696510,Button0Blue,0,"{""Source1"": 0.50, ""Source2"": 0.55, ""Source3"": 0.65}",40,6,6,6,7582.10000014305,blue,0,6,0,js-scroll-button-response,171,1,3,84,65  50  50  65  50  50,redblueredblueblueblue,0  1  0  1  1  1,1,0
11696510,Button0Blue,0,"{""Source1"": 0.50, ""Source2"": 0.55, ""Source3"": 0.65}",40,6,6,6,5968.5,red,1,6,1,js-scroll-button-response,173,1,3,85,65  65  65  50  50  65,redblueredblueredred,0  1  0  1  0  0,1,0
11696510,Button0Blue,0,"{""Source1"": 0.50, ""Source2"": 0.55, ""Source3"": 0.65}",40,6,6,6,5495.79999995232,red,1,6,1,js-scroll-button-response,175,1,3,86,55           55           55           55           65           55,redredredredblueblue,0  0  0  0  1  1,1,0
11696510,Button0Blue,0,"{""Source1"": 0.50, ""Source2"": 0.55, ""Source3"": 0.65}",40,6,6,6,3502.70000004768,blue,0,6,0,js-scroll-button-response,177,1,3,87,50           55           65           55           65           55,redblueblueblueblueblue,0  1  1  1  1  1,1,0
11696510,Button0Blue,0,"{""Source1"": 0.50, ""Source2"": 0.55, ""Source3"": 0.65}",40,6,6,6,3413.39999985695,red,1,6,1,js-scroll-button-response,179,1,3,88,50           65           50           55           55           65,redredredredblueblue,0  0  0  0  1  1,1,0
11696510,Button0Blue,0,"{""Source1"": 0.50, ""Source2"": 0.55, ""Source3"": 0.65}",40,6,6,6,5263.29999995232,red,1,6,1,js-scroll-button-response,181,1,3,89,65           55           65           50           50           65,redblueredblueredred,0  1  0  1  0  0,1,0
11696510,Button0Blue,0,"{""Source1"": 0.50, ""Source2"": 0.55, ""Source3"": 0.65}",40,6,6,6,3617.59999990463,blue,0,6,0,js-scroll-button-response,183,1,3,90,65           50           55           50           55           55,blueredblueredblueblue,1  0  1  0  1  1,1,0
11696510,Button0Blue,0,"{""Source1"": 0.50, ""Source2"": 0.55, ""Source3"": 0.65}",40,6,6,6,4272,blue,0,6,0,js-scroll-button-response,185,1,3,91,55           50           50           55           65           65,blueredblueredredblue,1  0  1  0  0  1,1,0
11696510,Button0Blue,0,"{""Source1"": 0.50, ""Source2"": 0.55, ""Source3"": 0.65}",40,6,6,6,4063.20000004768,red,1,6,1,js-scroll-button-response,187,1,3,92,55           50           55           65           55           55,redblueredredredred,0  1  0  0  0  0,1,0
11696510,Button0Blue,0,"{""Source1"": 0.50, ""Source2"": 0.55, ""Source3"": 0.65}",40,6,6,6,5147.40000009537,blue,1,6,0,js-scroll-button-response,189,0,3,93,55           50           50           65           65           55,redredredredbluered,0  0  0  0  1  0,1,0
11696510,Button0Blue,0,"{""Source1"": 0.50, ""Source2"": 0.55, ""Source3"": 0.65}",40,6,6,6,4079,blue,0,6,0,js-scroll-button-response,191,1,3,94,55           50           65           55           50           65,redblueblueredblueblue,0  1  1  0  1  1,1,0
11696510,Button0Blue,0,"{""Source1"": 0.50, ""Source2"": 0.55, ""Source3"": 0.65}",40,6,6,6,3949.89999985695,blue,1,6,0,js-scroll-button-response,193,0,3,95,50           50           65           50           55           50,redblueblueredredred,0  1  1  0  0  0,1,0
11696510,Button0Blue,0,"{""Source1"": 0.50, ""Source2"": 0.55, ""Source3"": 0.65}",40,6,6,6,4369.70000004768,blue,0,6,0,js-scroll-button-response,195,1,3,96,55           50           50           65           65           50,redredblueblueblueblue,0  0  1  1  1  1,1,0
11696510,Button0Blue,0,"{""Source1"": 0.50, ""Source2"": 0.55, ""Source3"": 0.65}",40,6,6,6,4639.09999990463,red,0,6,1,js-scroll-button-response,197,0,3,97,65  50  50  65  50  50,redredblueredredred,0  0  1  0  0  0,1,0
11696510,Button0Blue,0,"{""Source1"": 0.50, ""Source2"": 0.55, ""Source3"": 0.65}",40,6,6,6,4261.70000004768,blue,0,6,0,js-scroll-button-response,199,1,3,98,55           65           65           65           50           65,blueblueredblueredblue,1  1  0  1  0  1,1,0
11696510,Button0Blue,0,"{""Source1"": 0.50, ""Source2"": 0.55, ""Source3"": 0.65}",40,6,6,6,4215,red,1,6,1,js-scroll-button-response,201,1,3,99,50           55           55           65           55           65,redredredredredred,0  0  0  0  0  0,1,0
11696510,Button0Blue,0,"{""Source1"": 0.50, ""Source2"": 0.55, ""Source3"": 0.65}",40,6,6,6,4575.70000004768,blue,1,6,0,js-scroll-button-response,203,0,3,100,50           55           50           50           55           50,redredblueredbluered,0  0  1  0  1  0,1,0
11696510,Button0Blue,0,"{""Source1"": 0.50, ""Source2"": 0.55, ""Source3"": 0.65}",40,6,6,6,4655.09999990463,blue,0,6,0,js-scroll-button-response,205,1,3,101,50           65           55           55           55           55,redblueblueblueblueblue,0  1  1  1  1  1,1,0
11696510,Button0Blue,0,"{""Source1"": 0.50, ""Source2"": 0.55, ""Source3"": 0.65}",40,6,6,6,4623.30000019073,blue,0,6,0,js-scroll-button-response,207,1,3,102,50           55           65           50           50           50,blueredblueredredblue,1  0  1  0  0  1,1,0
11696510,Button0Blue,0,"{""Source1"": 0.50, ""Source2"": 0.55, ""Source3"": 0.65}",40,6,6,6,4480.60000014305,blue,1,6,0,js-scroll-button-response,209,0,3,103,50           65           65           55           50           55,blueblueredredblueblue,1  1  0  0  1  1,1,0
11696510,Button0Blue,0,"{""Source1"": 0.50, ""Source2"": 0.55, ""Source3"": 0.65}",40,6,6,6,4609.29999995232,red,0,6,1,js-scroll-button-response,211,0,3,104,55           55           55           65           65           50,blueredblueredredblue,1  0  1  0  0  1,1,0
11696510,Button0Blue,0,"{""Source1"": 0.50, ""Source2"": 0.55, ""Source3"": 0.65}",40,6,6,6,4257.09999990463,blue,0,6,0,js-scroll-button-response,213,1,3,105,65           55           50           65           65           55,bluebluebluebluebluered,1  1  1  1  1  0,1,0
11696510,Button0Blue,0,"{""Source1"": 0.50, ""Source2"": 0.55, ""Source3"": 0.65}",40,6,6,6,3944.70000004768,red,0,6,1,js-scroll-button-response,215,0,3,106,50           50           55           65           50           65,redredblueredredblue,0  0  1  0  0  1,1,0
11696510,Button0Blue,0,"{""Source1"": 0.50, ""Source2"": 0.55, ""Source3"": 0.65}",40,6,6,6,3648.89999985695,blue,1,6,0,js-scroll-button-response,217,0,3,107,55           50           65           55           50           50,redblueredredbluered,0  1  0  0  1  0,1,0
11696510,Button0Blue,0,"{""Source1"": 0.50, ""Source2"": 0.55, ""Source3"": 0.65}",40,6,6,6,3679,blue,1,6,0,js-scroll-button-response,219,0,3,108,65  65  50  65  65  50,blueredredredbluered,1  0  0  0  1  0,1,0
11696510,Button0Blue,0,"{""Source1"": 0.50, ""Source2"": 0.55, ""Source3"": 0.65}",40,6,6,6,3679.80000019073,red,0,6,1,js-scroll-button-response,221,0,3,109,50           65           55           50           55           65,blueredblueblueblueblue,1  0  1  1  1  1,1,0
11696510,Button0Blue,0,"{""Source1"": 0.50, ""Source2"": 0.55, ""Source3"": 0.65}",40,6,6,6,3927.59999990463,blue,1,6,0,js-scroll-button-response,223,0,3,110,50           50           50           55           65           55,redredblueblueredred,0  0  1  1  0  0,1,0
11696510,Button0Blue,0,"{""Source1"": 0.50, ""Source2"": 0.55, ""Source3"": 0.65}",40,6,6,6,4959.79999995232,red,0,6,1,js-scroll-button-response,225,0,3,111,55           50           65           65           50           65,blueblueredbluebluered,1  1  0  1  1  0,1,0
11696510,Button0Blue,0,"{""Source1"": 0.50, ""Source2"": 0.55, ""Source3"": 0.65}",40,6,6,6,3722.29999995232,red,0,6,1,js-scroll-button-response,227,0,3,112,50  50  50  65  50  50,blueblueblueredblueblue,1  1  1  0  1  1,1,0
11696510,Button0Blue,0,"{""Source1"": 0.50, ""Source2"": 0.55, ""Source3"": 0.65}",40,6,6,6,4281.20000004768,red,0,6,1,js-scroll-button-response,229,0,3,113,65           65           55           65           65           55,blueblueblueblueredblue,1  1  1  1  0  1,1,0
11696510,Button0Blue,0,"{""Source1"": 0.50, ""Source2"": 0.55, ""Source3"": 0.65}",40,6,6,6,4239.20000004768,blue,1,6,0,js-scroll-button-response,231,0,3,114,50  50  50  50  65  50,blueblueredredredblue,1  1  0  0  0  1,1,0
11696510,Button0Blue,0,"{""Source1"": 0.50, ""Source2"": 0.55, ""Source3"": 0.65}",40,6,6,6,4121.70000004768,red,0,6,1,js-scroll-button-response,233,0,3,115,65           65           55           50           55           55,blueredredbluebluered,1  0  0  1  1  0,1,0
11696510,Button0Blue,0,"{""Source1"": 0.50, ""Source2"": 0.55, ""Source3"": 0.65}",40,6,6,6,3768.89999985695,blue,0,6,0,js-scroll-button-response,235,1,3,116,55           50           50           55           65           50,redblueblueblueblueblue,0  1  1  1  1  1,1,0
11696510,Button0Blue,0,"{""Source1"": 0.50, ""Source2"": 0.55, ""Source3"": 0.65}",40,6,6,6,3886.70000004768,blue,1,6,0,js-scroll-button-response,237,0,3,117,50           50           55           50           50           65,redredredblueredred,0  0  0  1  0  0,1,0
11696510,Button0Blue,0,"{""Source1"": 0.50, ""Source2"": 0.55, ""Source3"": 0.65}",40,6,6,6,3584,blue,0,6,0,js-scroll-button-response,239,1,3,118,50           55           65           55           50           65,redblueblueblueredblue,0  1  1  1  0  1,1,0
11696510,Button0Blue,0,"{""Source1"": 0.50, ""Source2"": 0.55, ""Source3"": 0.65}",40,6,6,6,3975.70000004768,blue,0,6,0,js-scroll-button-response,241,1,3,119,55           55           50           65           50           50,blueredblueblueredred,1  0  1  1  0  0,1,0
11696510,Button0Blue,0,"{""Source1"": 0.50, ""Source2"": 0.55, ""Source3"": 0.65}",40,6,6,6,3601.29999995232,blue,0,6,0,js-scroll-button-response,243,1,3,120,50           50           65           50           50           55,blueblueblueblueredblue,1  1  1  1  0  1,1,0
11696510,Button0Blue,0,"{""Source1"": 0.50, ""Source2"": 0.55, ""Source3"": 0.65}",40,6,6,6,5974.5,red,0,6,1,js-scroll-button-response,246,0,4,121,55           65           65           65           50           50,redredredblueredblue,0  0  0  1  0  1,1,0
11696510,Button0Blue,0,"{""Source1"": 0.50, ""Source2"": 0.55, ""Source3"": 0.65}",40,6,6,6,3759.5,blue,1,6,0,js-scroll-button-response,248,0,4,122,50           65           50           55           50           50,blueredredbluebluered,1  0  0  1  1  0,1,0
11696510,Button0Blue,0,"{""Source1"": 0.50, ""Source2"": 0.55, ""Source3"": 0.65}",40,6,6,6,3983.20000004768,blue,1,6,0,js-scroll-button-response,250,0,4,123,65  50  50  65  50  50,redredredredredblue,0  0  0  0  0  1,1,0
11696510,Button0Blue,0,"{""Source1"": 0.50, ""Source2"": 0.55, ""Source3"": 0.65}",40,6,6,6,3977.10000014305,blue,0,6,0,js-scroll-button-response,252,1,4,124,50           55           50           65           65           50,redredbluebluebluered,0  0  1  1  1  0,1,0
11696510,Button0Blue,0,"{""Source1"": 0.50, ""Source2"": 0.55, ""Source3"": 0.65}",40,6,6,6,4600.30000019073,blue,1,6,0,js-scroll-button-response,254,0,4,125,55           50           55           65           65           65,redblueredblueredred,0  1  0  1  0  0,1,0
11696510,Button0Blue,0,"{""Source1"": 0.50, ""Source2"": 0.55, ""Source3"": 0.65}",40,6,6,6,6886.89999985695,blue,0,6,0,js-scroll-button-response,256,1,4,126,50           55           65           50           55           65,blueredredredredblue,1  0  0  0  0  1,1,0
11696510,Button0Blue,0,"{""Source1"": 0.50, ""Source2"": 0.55, ""Source3"": 0.65}",40,6,6,6,3807.90000009537,red,1,6,1,js-scroll-button-response,258,1,4,127,55           55           50           55           50           65,redredblueredredblue,0  0  1  0  0  1,1,0
11696510,Button0Blue,0,"{""Source1"": 0.50, ""Source2"": 0.55, ""Source3"": 0.65}",40,6,6,6,4590.60000014305,blue,0,6,0,js-scroll-button-response,260,1,4,128,55           55           50           55           65           50,blueblueredredbluered,1  1  0  0  1  0,1,0
11696510,Button0Blue,0,"{""Source1"": 0.50, ""Source2"": 0.55, ""Source3"": 0.65}",40,6,6,6,4214.29999995232,blue,0,6,0,js-scroll-button-response,262,1,4,129,55           50           50           50           50           65,blueredblueblueredblue,1  0  1  1  0  1,1,0
11696510,Button0Blue,0,"{""Source1"": 0.50, ""Source2"": 0.55, ""Source3"": 0.65}",40,6,6,6,4177.59999990463,blue,1,6,0,js-scroll-button-response,264,0,4,130,55           65           65           55           65           50,redredredblueblueblue,0  0  0  1  1  1,1,0
11696510,Button0Blue,0,"{""Source1"": 0.50, ""Source2"": 0.55, ""Source3"": 0.65}",40,6,6,6,3815.69999980927,blue,0,6,0,js-scroll-button-response,266,1,4,131,55           50           50           65           65           55,blueblueblueblueredblue,1  1  1  1  0  1,1,0
11696510,Button0Blue,0,"{""Source1"": 0.50, ""Source2"": 0.55, ""Source3"": 0.65}",40,6,6,6,4119.20000004768,blue,0,6,0,js-scroll-button-response,268,1,4,132,65           55           50           50           50           65,blueredredblueblueblue,1  0  0  1  1  1,1,0
11696510,Button0Blue,0,"{""Source1"": 0.50, ""Source2"": 0.55, ""Source3"": 0.65}",40,6,6,6,4174.79999995232,red,1,6,1,js-scroll-button-response,270,1,4,133,65           55           55           55           50           65,redblueredredredblue,0  1  0  0  0  1,1,0
11696510,Button0Blue,0,"{""Source1"": 0.50, ""Source2"": 0.55, ""Source3"": 0.65}",40,6,6,6,4640.90000009537,blue,1,6,0,js-scroll-button-response,272,0,4,134,65  50  50  65  50  50,redredredbluebluered,0  0  0  1  1  0,1,0
11696510,Button0Blue,0,"{""Source1"": 0.50, ""Source2"": 0.55, ""Source3"": 0.65}",40,6,6,6,3870.5,blue,0,6,0,js-scroll-button-response,274,1,4,135,50           55           65           65           50           50,blueredbluebluebluered,1  0  1  1  1  0,1,0
11696510,Button0Blue,0,"{""Source1"": 0.50, ""Source2"": 0.55, ""Source3"": 0.65}",40,6,6,6,8466.90000009537,red,1,6,1,js-scroll-button-response,276,1,4,136,65           55           55           65           55           65,redredblueredredred,0  0  1  0  0  0,1,0
11696510,Button0Blue,0,"{""Source1"": 0.50, ""Source2"": 0.55, ""Source3"": 0.65}",40,6,6,6,4287.59999990463,blue,0,6,0,js-scroll-button-response,278,1,4,137,55           50           55           65           50           65,blueredredredblueblue,1  0  0  0  1  1,1,0
11696510,Button0Blue,0,"{""Source1"": 0.50, ""Source2"": 0.55, ""Source3"": 0.65}",40,6,6,6,3992.40000009537,red,0,6,1,js-scroll-button-response,280,0,4,138,50           65           55           50           65           55,blueblueblueblueredblue,1  1  1  1  0  1,1,0
11696510,Button0Blue,0,"{""Source1"": 0.50, ""Source2"": 0.55, ""Source3"": 0.65}",40,6,6,6,4698.29999995232,red,0,6,1,js-scroll-button-response,282,0,4,139,65  50  65  65  50  65,redblueredblueblueblue,0  1  0  1  1  1,1,0
11696510,Button0Blue,0,"{""Source1"": 0.50, ""Source2"": 0.55, ""Source3"": 0.65}",40,6,6,6,6982.90000009537,red,0,6,1,js-scroll-button-response,284,0,4,140,65           65           65           50           55           50,redblueblueblueredblue,0  1  1  1  0  1,1,0
11696510,Button0Blue,0,"{""Source1"": 0.50, ""Source2"": 0.55, ""Source3"": 0.65}",40,6,6,6,3889.09999990463,red,1,6,1,js-scroll-button-response,286,1,4,141,50           65           55           55           65           65,redblueredredbluered,0  1  0  0  1  0,1,0
11696510,Button0Blue,0,"{""Source1"": 0.50, ""Source2"": 0.55, ""Source3"": 0.65}",40,6,6,6,4566.5,red,0,6,1,js-scroll-button-response,288,0,4,142,55           50           65           55           65           65,blueredredredblueblue,1  0  0  0  1  1,1,0
