ParticipantPrivateID,randomiser_475f,ResponseButtonOrder,Sources,Trials_perBlock_,Blocks,MinimumSamples,MaximumSamples,RT,Stimulus,Response,NoOfStimuli,CorrectResponse,TrialType,TrialIndex,Accuracy,Block,TrialNumber,Sample_Reliability,Sample_Color,Sample_NumColor,Prior_Belief,Awareness
11696534,Button0Red,1,"{""Source1"": 0.50, ""Source2"": 0.55, ""Source3"": 0.65}",40,6,6,6,22585.400000006,blue,0,6,1,js-scroll-button-response,3,0,1,1,65           65           65           50           55           55,blueredredredredblue,0  1  1  1  1  0,1,1
11696534,Button0Red,1,"{""Source1"": 0.50, ""Source2"": 0.55, ""Source3"": 0.65}",40,6,6,6,13106.599999994,blue,1,6,1,js-scroll-button-response,5,1,1,2,55           50           65           65           50           65,blueredbluebluebluered,0  1  0  0  0  1,1,1
11696534,Button0Red,1,"{""Source1"": 0.50, ""Source2"": 0.55, ""Source3"": 0.65}",40,6,6,6,6645,red,0,6,0,js-scroll-button-response,7,1,1,3,65           50           55           55           50           65,redredredbluebluered,1  1  1  0  0  1,1,1
11696534,Button0Red,1,"{""Source1"": 0.50, ""Source2"": 0.55, ""Source3"": 0.65}",40,6,6,6,9155.90000000596,blue,1,6,1,js-scroll-button-response,9,1,1,4,65           65           55           55           55           65,blueblueblueredredblue,0  0  0  1  1  0,1,1
11696534,Button0Red,1,"{""Source1"": 0.50, ""Source2"": 0.55, ""Source3"": 0.65}",40,6,6,6,18854.5,blue,1,6,1,js-scroll-button-response,11,1,1,5,50           50           55           65           50           50,blueredredbluebluered,0  1  1  0  0  1,1,1
11696534,Button0Red,1,"{""Source1"": 0.50, ""Source2"": 0.55, ""Source3"": 0.65}",40,6,6,6,10173.099999994,blue,1,6,1,js-scroll-button-response,13,1,1,6,50           50           50           65           55           65,blueredredblueredblue,0  1  1  0  1  0,1,1
11696534,Button0Red,1,"{""Source1"": 0.50, ""Source2"": 0.55, ""Source3"": 0.65}",40,6,6,6,4360.39999997616,blue,0,6,1,js-scroll-button-response,15,0,1,7,65           65           55           65           65           50,redblueredblueblueblue,1  0  1  0  0  0,1,1
11696534,Button0Red,1,"{""Source1"": 0.50, ""Source2"": 0.55, ""Source3"": 0.65}",40,6,6,6,10622.3999999762,blue,0,6,1,js-scroll-button-response,17,0,1,8,65  50  65  50  50  65,redblueblueredredred,1  0  0  1  1  1,1,1
11696534,Button0Red,1,"{""Source1"": 0.50, ""Source2"": 0.55, ""Source3"": 0.65}",40,6,6,6,11655.1999999881,blue,1,6,1,js-scroll-button-response,19,1,1,9,50           65           55           65           65           50,blueredblueblueblueblue,0  1  0  0  0  0,1,1
11696534,Button0Red,1,"{""Source1"": 0.50, ""Source2"": 0.55, ""Source3"": 0.65}",40,6,6,6,7262.5,red,1,6,0,js-scroll-button-response,21,0,1,10,65           50           55           50           50           65,blueblueblueredbluered,0  0  0  1  0  1,1,1
11696534,Button0Red,1,"{""Source1"": 0.50, ""Source2"": 0.55, ""Source3"": 0.65}",40,6,6,6,8466.80000001192,blue,0,6,1,js-scroll-button-response,23,0,1,11,55           65           65           65           50           55,redredredredblueblue,1  1  1  1  0  0,1,1
11696534,Button0Red,1,"{""Source1"": 0.50, ""Source2"": 0.55, ""Source3"": 0.65}",40,6,6,6,6328.19999998808,blue,0,6,1,js-scroll-button-response,25,0,1,12,65           65           55           50           55           50,redblueredblueblueblue,1  0  1  0  0  0,1,1
11696534,Button0Red,1,"{""Source1"": 0.50, ""Source2"": 0.55, ""Source3"": 0.65}",40,6,6,6,6144.5,red,0,6,0,js-scroll-button-response,27,1,1,13,50           55           65           50           65           55,redredblueblueredred,1  1  0  0  1  1,1,1
11696534,Button0Red,1,"{""Source1"": 0.50, ""Source2"": 0.55, ""Source3"": 0.65}",40,6,6,6,8726,blue,1,6,1,js-scroll-button-response,29,1,1,14,65           50           55           65           65           55,blueredredredredblue,0  1  1  1  1  0,1,1
11696534,Button0Red,1,"{""Source1"": 0.50, ""Source2"": 0.55, ""Source3"": 0.65}",40,6,6,6,8113.80000001192,red,1,6,0,js-scroll-button-response,31,0,1,15,65           55           65           50           50           50,blueblueredredredblue,0  0  1  1  1  0,1,1
11696534,Button0Red,1,"{""Source1"": 0.50, ""Source2"": 0.55, ""Source3"": 0.65}",40,6,6,6,7873,blue,0,6,1,js-scroll-button-response,33,0,1,16,50           50           55           55           50           55,redredredblueredred,1  1  1  0  1  1,1,1
11696534,Button0Red,1,"{""Source1"": 0.50, ""Source2"": 0.55, ""Source3"": 0.65}",40,6,6,6,8723.19999998808,red,0,6,0,js-scroll-button-response,35,1,1,17,65           65           55           65           50           55,redredredredredred,1  1  1  1  1  1,1,1
11696534,Button0Red,1,"{""Source1"": 0.50, ""Source2"": 0.55, ""Source3"": 0.65}",40,6,6,6,17586.2000000179,blue,1,6,1,js-scroll-button-response,37,1,1,18,50           55           65           65           65           50,redblueblueredblueblue,1  0  0  1  0  0,1,1
11696534,Button0Red,1,"{""Source1"": 0.50, ""Source2"": 0.55, ""Source3"": 0.65}",40,6,6,6,8474,red,0,6,0,js-scroll-button-response,39,1,1,19,50           65           55           65           55           50,redredredredredred,1  1  1  1  1  1,1,1
11696534,Button0Red,1,"{""Source1"": 0.50, ""Source2"": 0.55, ""Source3"": 0.65}",40,6,6,6,8121.20000001788,red,0,6,0,js-scroll-button-response,41,1,1,20,55           65           50           50           55           65,redredredbluebluered,1  1  1  0  0  1,1,1
11696534,Button0Red,1,"{""Source1"": 0.50, ""Source2"": 0.55, ""Source3"": 0.65}",40,6,6,6,7185.69999998808,red,1,6,0,js-scroll-button-response,43,0,1,21,65           50           50           65           55           55,redredblueredblueblue,1  1  0  1  0  0,1,1
11696534,Button0Red,1,"{""Source1"": 0.50, ""Source2"": 0.55, ""Source3"": 0.65}",40,6,6,6,6002.90000000596,blue,1,6,1,js-scroll-button-response,45,1,1,22,65           55           55           55           65           65,blueredblueredredblue,0  1  0  1  1  0,1,1
11696534,Button0Red,1,"{""Source1"": 0.50, ""Source2"": 0.55, ""Source3"": 0.65}",40,6,6,6,19856.7999999821,blue,0,6,1,js-scroll-button-response,47,0,1,23,55           55           55           50           65           65,redredblueredbluered,1  1  0  1  0  1,1,1
11696534,Button0Red,1,"{""Source1"": 0.50, ""Source2"": 0.55, ""Source3"": 0.65}",40,6,6,6,10060.3000000119,blue,1,6,1,js-scroll-button-response,49,1,1,24,55           65           65           55           55           50,blueblueredblueredred,0  0  1  0  1  1,1,1
11696534,Button0Red,1,"{""Source1"": 0.50, ""Source2"": 0.55, ""Source3"": 0.65}",40,6,6,6,6664.59999999404,blue,1,6,1,js-scroll-button-response,51,1,1,25,65  65  65  65  50  50,blueredblueredredblue,0  1  0  1  1  0,1,1
11696534,Button0Red,1,"{""Source1"": 0.50, ""Source2"": 0.55, ""Source3"": 0.65}",40,6,6,6,7784.90000000596,blue,1,6,1,js-scroll-button-response,53,1,1,26,55           65           55           50           55           50,blueblueblueblueblueblue,0  0  0  0  0  0,1,1
11696534,Button0Red,1,"{""Source1"": 0.50, ""Source2"": 0.55, ""Source3"": 0.65}",40,6,6,6,7493.90000000596,blue,1,6,1,js-scroll-button-response,55,1,1,27,65           55           65           65           50           50,redblueblueblueblueblue,1  0  0  0  0  0,1,1
11696534,Button0Red,1,"{""Source1"": 0.50, ""Source2"": 0.55, ""Source3"": 0.65}",40,6,6,6,9552.40000000596,blue,1,6,1,js-scroll-button-response,57,1,1,28,55           65           55           50           50           55,blueblueblueblueredblue,0  0  0  0  1  0,1,1
11696534,Button0Red,1,"{""Source1"": 0.50, ""Source2"": 0.55, ""Source3"": 0.65}",40,6,6,6,7480.09999999404,blue,0,6,1,js-scroll-button-response,59,0,1,29,65           55           65           55           55           65,redblueblueredredred,1  0  0  1  1  1,1,1
11696534,Button0Red,1,"{""Source1"": 0.50, ""Source2"": 0.55, ""Source3"": 0.65}",40,6,6,6,7704,red,1,6,0,js-scroll-button-response,61,0,1,30,50           55           65           50           55           65,redredredredblueblue,1  1  1  1  0  0,1,1
11696534,Button0Red,1,"{""Source1"": 0.50, ""Source2"": 0.55, ""Source3"": 0.65}",40,6,6,6,5300.09999999404,red,1,6,0,js-scroll-button-response,63,0,1,31,65           65           55           50           65           50,blueblueredredbluered,0  0  1  1  0  1,1,1
11696534,Button0Red,1,"{""Source1"": 0.50, ""Source2"": 0.55, ""Source3"": 0.65}",40,6,6,6,6925,blue,0,6,1,js-scroll-button-response,65,0,1,32,50           50           50           55           50           65,blueredblueblueredred,0  1  0  0  1  1,1,1
11696534,Button0Red,1,"{""Source1"": 0.50, ""Source2"": 0.55, ""Source3"": 0.65}",40,6,6,6,6110.59999999404,blue,0,6,1,js-scroll-button-response,67,0,1,33,65           65           55           55           55           65,redredredredredred,1  1  1  1  1  1,1,1
11696534,Button0Red,1,"{""Source1"": 0.50, ""Source2"": 0.55, ""Source3"": 0.65}",40,6,6,6,18970.6000000238,red,0,6,0,js-scroll-button-response,69,1,1,34,65           65           55           55           50           65,redblueredredredred,1  0  1  1  1  1,1,1
11696534,Button0Red,1,"{""Source1"": 0.50, ""Source2"": 0.55, ""Source3"": 0.65}",40,6,6,6,9144,red,0,6,0,js-scroll-button-response,71,1,1,35,65           55           50           55           55           50,redredblueredredblue,1  1  0  1  1  0,1,1
11696534,Button0Red,1,"{""Source1"": 0.50, ""Source2"": 0.55, ""Source3"": 0.65}",40,6,6,6,5489.80000001192,blue,1,6,1,js-scroll-button-response,73,1,1,36,55           55           65           55           55           55,blueblueredblueblueblue,0  0  1  0  0  0,1,1
11696534,Button0Red,1,"{""Source1"": 0.50, ""Source2"": 0.55, ""Source3"": 0.65}",40,6,6,6,8317,red,0,6,0,js-scroll-button-response,75,1,1,37,50           65           65           50           55           65,blueredblueblueredred,0  1  0  0  1  1,1,1
11696534,Button0Red,1,"{""Source1"": 0.50, ""Source2"": 0.55, ""Source3"": 0.65}",40,6,6,6,7289.90000000596,red,0,6,0,js-scroll-button-response,77,1,1,38,65           55           55           50           55           55,redredredblueredblue,1  1  1  0  1  0,1,1
11696534,Button0Red,1,"{""Source1"": 0.50, ""Source2"": 0.55, ""Source3"": 0.65}",40,6,6,6,12799.599999994,blue,1,6,1,js-scroll-button-response,79,1,1,39,55           50           55           55           50           55,blueredblueblueredred,0  1  0  0  1  1,1,1
11696534,Button0Red,1,"{""Source1"": 0.50, ""Source2"": 0.55, ""Source3"": 0.65}",40,6,6,6,10497.400000006,blue,0,6,1,js-scroll-button-response,81,0,1,40,50           55           55           65           55           65,redredbluebluebluered,1  1  0  0  0  1,1,1
11696534,Button0Red,1,"{""Source1"": 0.50, ""Source2"": 0.55, ""Source3"": 0.65}",40,6,6,6,6718.5,blue,0,6,1,js-scroll-button-response,84,0,2,41,65           50           55           55           55           50,redblueblueredredblue,1  0  0  1  1  0,1,1
11696534,Button0Red,1,"{""Source1"": 0.50, ""Source2"": 0.55, ""Source3"": 0.65}",40,6,6,6,5909.5,red,0,6,0,js-scroll-button-response,86,1,2,42,55           65           65           65           65           55,redredredredredblue,1  1  1  1  1  0,1,1
11696534,Button0Red,1,"{""Source1"": 0.50, ""Source2"": 0.55, ""Source3"": 0.65}",40,6,6,6,5624.09999999404,blue,1,6,1,js-scroll-button-response,88,1,2,43,50           50           50           65           55           55,redredblueblueblueblue,1  1  0  0  0  0,1,1
11696534,Button0Red,1,"{""Source1"": 0.50, ""Source2"": 0.55, ""Source3"": 0.65}",40,6,6,6,6934.70000001788,blue,1,6,1,js-scroll-button-response,90,1,2,44,65           65           50           55           55           55,redblueblueredredblue,1  0  0  1  1  0,1,1
11696534,Button0Red,1,"{""Source1"": 0.50, ""Source2"": 0.55, ""Source3"": 0.65}",40,6,6,6,14230,red,1,6,0,js-scroll-button-response,92,0,2,45,65           55           55           50           55           55,redblueblueblueredred,1  0  0  0  1  1,1,1
11696534,Button0Red,1,"{""Source1"": 0.50, ""Source2"": 0.55, ""Source3"": 0.65}",40,6,6,6,6329.09999999404,blue,1,6,1,js-scroll-button-response,94,1,2,46,55           65           55           55           65           50,redbluebluebluebluered,1  0  0  0  0  1,1,1
11696534,Button0Red,1,"{""Source1"": 0.50, ""Source2"": 0.55, ""Source3"": 0.65}",40,6,6,6,6704,blue,1,6,1,js-scroll-button-response,96,1,2,47,55           55           55           55           65           50,blueblueredredblueblue,0  0  1  1  0  0,1,1
11696534,Button0Red,1,"{""Source1"": 0.50, ""Source2"": 0.55, ""Source3"": 0.65}",40,6,6,6,9153.09999999404,blue,0,6,1,js-scroll-button-response,98,0,2,48,65  50  50  65  50  50,redredblueredredblue,1  1  0  1  1  0,1,1
11696534,Button0Red,1,"{""Source1"": 0.50, ""Source2"": 0.55, ""Source3"": 0.65}",40,6,6,6,10127.5,red,0,6,0,js-scroll-button-response,100,1,2,49,55           55           65           50           50           50,blueblueredredredred,0  0  1  1  1  1,1,1
11696534,Button0Red,1,"{""Source1"": 0.50, ""Source2"": 0.55, ""Source3"": 0.65}",40,6,6,6,29569.599999994,blue,1,6,1,js-scroll-button-response,102,1,2,50,55           55           50           50           50           65,redredredblueblueblue,1  1  1  0  0  0,1,1
11696534,Button0Red,1,"{""Source1"": 0.50, ""Source2"": 0.55, ""Source3"": 0.65}",40,6,6,6,14698.2000000179,red,1,6,0,js-scroll-button-response,104,0,2,51,65           65           50           55           55           50,blueredredblueblueblue,0  1  1  0  0  0,1,1
11696534,Button0Red,1,"{""Source1"": 0.50, ""Source2"": 0.55, ""Source3"": 0.65}",40,6,6,6,21264.599999994,blue,1,6,1,js-scroll-button-response,106,1,2,52,50           50           55           65           65           55,blueredblueredblueblue,0  1  0  1  0  0,1,1
11696534,Button0Red,1,"{""Source1"": 0.50, ""Source2"": 0.55, ""Source3"": 0.65}",40,6,6,6,8907.5,blue,1,6,1,js-scroll-button-response,108,1,2,53,50           50           65           55           65           50,bluebluebluebluebluered,0  0  0  0  0  1,1,1
11696534,Button0Red,1,"{""Source1"": 0.50, ""Source2"": 0.55, ""Source3"": 0.65}",40,6,6,6,16088.599999994,red,1,6,0,js-scroll-button-response,110,0,2,54,50           50           65           50           55           65,redblueredblueblueblue,1  0  1  0  0  0,1,1
11696534,Button0Red,1,"{""Source1"": 0.50, ""Source2"": 0.55, ""Source3"": 0.65}",40,6,6,6,7391.5,blue,1,6,1,js-scroll-button-response,112,1,2,55,65           65           55           55           55           65,blueblueredblueblueblue,0  0  1  0  0  0,1,1
11696534,Button0Red,1,"{""Source1"": 0.50, ""Source2"": 0.55, ""Source3"": 0.65}",40,6,6,6,6960.5,blue,0,6,1,js-scroll-button-response,114,0,2,56,50           50           65           50           55           65,redredredredblueblue,1  1  1  1  0  0,1,1
11696534,Button0Red,1,"{""Source1"": 0.50, ""Source2"": 0.55, ""Source3"": 0.65}",40,6,6,6,8356.40000000596,blue,1,6,1,js-scroll-button-response,116,1,2,57,55           65           55           65           55           65,blueredredredblueblue,0  1  1  1  0  0,1,1
11696534,Button0Red,1,"{""Source1"": 0.50, ""Source2"": 0.55, ""Source3"": 0.65}",40,6,6,6,7057.5,blue,1,6,1,js-scroll-button-response,118,1,2,58,55           65           55           55           50           50,blueblueblueblueblueblue,0  0  0  0  0  0,1,1
11696534,Button0Red,1,"{""Source1"": 0.50, ""Source2"": 0.55, ""Source3"": 0.65}",40,6,6,6,5919,red,0,6,0,js-scroll-button-response,120,1,2,59,50  65  65  50  65  65,blueblueredredredred,0  0  1  1  1  1,1,1
11696534,Button0Red,1,"{""Source1"": 0.50, ""Source2"": 0.55, ""Source3"": 0.65}",40,6,6,6,17393.400000006,red,1,6,0,js-scroll-button-response,122,0,2,60,50           55           50           55           65           55,blueredblueredblueblue,0  1  0  1  0  0,1,1
11696534,Button0Red,1,"{""Source1"": 0.50, ""Source2"": 0.55, ""Source3"": 0.65}",40,6,6,6,9186.19999998808,blue,0,6,1,js-scroll-button-response,124,0,2,61,50           65           55           55           50           50,redblueredredredred,1  0  1  1  1  1,1,1
11696534,Button0Red,1,"{""Source1"": 0.50, ""Source2"": 0.55, ""Source3"": 0.65}",40,6,6,6,17450.7000000179,blue,1,6,1,js-scroll-button-response,126,1,2,62,55           50           50           55           50           50,blueredblueblueredblue,0  1  0  0  1  0,1,1
11696534,Button0Red,1,"{""Source1"": 0.50, ""Source2"": 0.55, ""Source3"": 0.65}",40,6,6,6,13753.8000000119,red,0,6,0,js-scroll-button-response,128,1,2,63,50           50           50           50           65           55,blueblueredblueredred,0  0  1  0  1  1,1,1
11696534,Button0Red,1,"{""Source1"": 0.50, ""Source2"": 0.55, ""Source3"": 0.65}",40,6,6,6,6602.59999999404,blue,0,6,1,js-scroll-button-response,130,0,2,64,65           55           55           65           50           50,redblueblueredblueblue,1  0  0  1  0  0,1,1
11696534,Button0Red,1,"{""Source1"": 0.50, ""Source2"": 0.55, ""Source3"": 0.65}",40,6,6,6,7443.40000000596,blue,0,6,1,js-scroll-button-response,132,0,2,65,65           55           55           55           65           65,blueredredredredred,0  1  1  1  1  1,1,1
11696534,Button0Red,1,"{""Source1"": 0.50, ""Source2"": 0.55, ""Source3"": 0.65}",40,6,6,6,5431.30000001192,red,1,6,0,js-scroll-button-response,134,0,2,66,65           65           50           50           55           55,redblueblueblueredred,1  0  0  0  1  1,1,1
11696534,Button0Red,1,"{""Source1"": 0.50, ""Source2"": 0.55, ""Source3"": 0.65}",40,6,6,6,9658,blue,0,6,1,js-scroll-button-response,136,0,2,67,65  50  65  50  50  65,redblueblueredbluered,1  0  0  1  0  1,1,1
11696534,Button0Red,1,"{""Source1"": 0.50, ""Source2"": 0.55, ""Source3"": 0.65}",40,6,6,6,13752.1999999881,red,0,6,0,js-scroll-button-response,138,1,2,68,50           55           55           55           50           50,redredredredredred,1  1  1  1  1  1,1,1
11696534,Button0Red,1,"{""Source1"": 0.50, ""Source2"": 0.55, ""Source3"": 0.65}",40,6,6,6,6252,blue,0,6,1,js-scroll-button-response,140,0,2,69,50           65           55           55           50           50,redredblueredredred,1  1  0  1  1  1,1,1
11696534,Button0Red,1,"{""Source1"": 0.50, ""Source2"": 0.55, ""Source3"": 0.65}",40,6,6,6,5616.19999998808,red,1,6,0,js-scroll-button-response,142,0,2,70,50           55           55           50           65           55,blueredredredredblue,0  1  1  1  1  0,1,1
11696534,Button0Red,1,"{""Source1"": 0.50, ""Source2"": 0.55, ""Source3"": 0.65}",40,6,6,6,5904.40000000596,red,1,6,0,js-scroll-button-response,144,0,2,71,50           55           50           55           65           50,redblueblueredbluered,1  0  0  1  0  1,1,1
11696534,Button0Red,1,"{""Source1"": 0.50, ""Source2"": 0.55, ""Source3"": 0.65}",40,6,6,6,5377.89999997616,red,1,6,0,js-scroll-button-response,146,0,2,72,50  50  65  65  65  50,redredredredblueblue,1  1  1  1  0  0,1,1
11696534,Button0Red,1,"{""Source1"": 0.50, ""Source2"": 0.55, ""Source3"": 0.65}",40,6,6,6,8096.30000001192,red,0,6,0,js-scroll-button-response,148,1,2,73,55           55           55           55           50           55,redblueredblueredred,1  0  1  0  1  1,1,1
11696534,Button0Red,1,"{""Source1"": 0.50, ""Source2"": 0.55, ""Source3"": 0.65}",40,6,6,6,6935.59999999404,blue,0,6,1,js-scroll-button-response,150,0,2,74,65  50  65  50  65  65,redredredbluebluered,1  1  1  0  0  1,1,1
11696534,Button0Red,1,"{""Source1"": 0.50, ""Source2"": 0.55, ""Source3"": 0.65}",40,6,6,6,10526,blue,0,6,1,js-scroll-button-response,152,0,2,75,50           55           50           55           50           50,redblueblueblueredred,1  0  0  0  1  1,1,1
11696534,Button0Red,1,"{""Source1"": 0.50, ""Source2"": 0.55, ""Source3"": 0.65}",40,6,6,6,4961.90000000596,blue,0,6,1,js-scroll-button-response,154,0,2,76,65           55           55           50           55           55,redredredredblueblue,1  1  1  1  0  0,1,1
11696534,Button0Red,1,"{""Source1"": 0.50, ""Source2"": 0.55, ""Source3"": 0.65}",40,6,6,6,5744.09999999404,blue,0,6,1,js-scroll-button-response,156,0,2,77,55           55           50           55           55           55,redblueredredredblue,1  0  1  1  1  0,1,1
11696534,Button0Red,1,"{""Source1"": 0.50, ""Source2"": 0.55, ""Source3"": 0.65}",40,6,6,6,4884.69999998808,blue,1,6,1,js-scroll-button-response,158,1,2,78,55           65           65           55           55           50,blueredblueredredblue,0  1  0  1  1  0,1,1
11696534,Button0Red,1,"{""Source1"": 0.50, ""Source2"": 0.55, ""Source3"": 0.65}",40,6,6,6,5305.5,blue,1,6,1,js-scroll-button-response,160,1,2,79,65  50  50  50  65  65,blueredredblueblueblue,0  1  1  0  0  0,1,1
11696534,Button0Red,1,"{""Source1"": 0.50, ""Source2"": 0.55, ""Source3"": 0.65}",40,6,6,6,5386,blue,1,6,1,js-scroll-button-response,162,1,2,80,50           50           55           65           55           55,blueredredblueredblue,0  1  1  0  1  0,1,1
11696534,Button0Red,1,"{""Source1"": 0.50, ""Source2"": 0.55, ""Source3"": 0.65}",40,6,6,6,7093.29999998212,blue,1,6,1,js-scroll-button-response,165,1,3,81,50  65  50  50  50  50,redblueblueblueredred,1  0  0  0  1  1,1,1
11696534,Button0Red,1,"{""Source1"": 0.50, ""Source2"": 0.55, ""Source3"": 0.65}",40,6,6,6,6489.5,blue,1,6,1,js-scroll-button-response,167,1,3,82,50           55           65           55           55           55,blueblueredredredred,0  0  1  1  1  1,1,1
11696534,Button0Red,1,"{""Source1"": 0.50, ""Source2"": 0.55, ""Source3"": 0.65}",40,6,6,6,5807.40000000596,blue,1,6,1,js-scroll-button-response,169,1,3,83,65           65           65           50           55           50,redblueredbluebluered,1  0  1  0  0  1,1,1
11696534,Button0Red,1,"{""Source1"": 0.50, ""Source2"": 0.55, ""Source3"": 0.65}",40,6,6,6,6303.5,red,0,6,0,js-scroll-button-response,171,1,3,84,50  50  65  65  65  50,blueblueredredredred,0  0  1  1  1  1,1,1
11696534,Button0Red,1,"{""Source1"": 0.50, ""Source2"": 0.55, ""Source3"": 0.65}",40,6,6,6,6463.40000000596,blue,1,6,1,js-scroll-button-response,173,1,3,85,50           50           50           55           55           50,blueredblueblueredblue,0  1  0  0  1  0,1,1
11696534,Button0Red,1,"{""Source1"": 0.50, ""Source2"": 0.55, ""Source3"": 0.65}",40,6,6,6,6329.09999999404,red,1,6,0,js-scroll-button-response,175,0,3,86,55           55           65           50           55           65,blueredredbluebluered,0  1  1  0  0  1,1,1
11696534,Button0Red,1,"{""Source1"": 0.50, ""Source2"": 0.55, ""Source3"": 0.65}",40,6,6,6,5615.90000000596,red,1,6,0,js-scroll-button-response,177,0,3,87,50           55           55           65           65           65,blueredredbluebluered,0  1  1  0  0  1,1,1
11696534,Button0Red,1,"{""Source1"": 0.50, ""Source2"": 0.55, ""Source3"": 0.65}",40,6,6,6,5887.09999999404,blue,1,6,1,js-scroll-button-response,179,1,3,88,65           50           65           55           50           65,blueredblueblueredred,0  1  0  0  1  1,1,1
11696534,Button0Red,1,"{""Source1"": 0.50, ""Source2"": 0.55, ""Source3"": 0.65}",40,6,6,6,16504.6999999881,red,1,6,0,js-scroll-button-response,181,0,3,89,55           55           65           55           55           50,blueblueblueredblueblue,0  0  0  1  0  0,1,1
11696534,Button0Red,1,"{""Source1"": 0.50, ""Source2"": 0.55, ""Source3"": 0.65}",40,6,6,6,5753,red,0,6,0,js-scroll-button-response,183,1,3,90,50           65           65           65           65           55,blueredredredbluered,0  1  1  1  0  1,1,1
11696534,Button0Red,1,"{""Source1"": 0.50, ""Source2"": 0.55, ""Source3"": 0.65}",40,6,6,6,6096.40000000596,blue,1,6,1,js-scroll-button-response,185,1,3,91,50           65           65           55           55           55,blueblueblueredblueblue,0  0  0  1  0  0,1,1
11696534,Button0Red,1,"{""Source1"": 0.50, ""Source2"": 0.55, ""Source3"": 0.65}",40,6,6,6,12348.8999999762,blue,0,6,1,js-scroll-button-response,187,0,3,92,50           55           65           55           65           50,redblueredblueredred,1  0  1  0  1  1,1,1
11696534,Button0Red,1,"{""Source1"": 0.50, ""Source2"": 0.55, ""Source3"": 0.65}",40,6,6,6,6529.09999999404,blue,1,6,1,js-scroll-button-response,189,1,3,93,55           65           65           65           65           50,blueredredblueredblue,0  1  1  0  1  0,1,1
11696534,Button0Red,1,"{""Source1"": 0.50, ""Source2"": 0.55, ""Source3"": 0.65}",40,6,6,6,7264.5,blue,1,6,1,js-scroll-button-response,191,1,3,94,55           50           50           50           65           50,blueblueblueblueblueblue,0  0  0  0  0  0,1,1
11696534,Button0Red,1,"{""Source1"": 0.50, ""Source2"": 0.55, ""Source3"": 0.65}",40,6,6,6,7821.5,red,0,6,0,js-scroll-button-response,193,1,3,95,50           55           50           55           55           65,blueblueredredredred,0  0  1  1  1  1,1,1
11696534,Button0Red,1,"{""Source1"": 0.50, ""Source2"": 0.55, ""Source3"": 0.65}",40,6,6,6,9281.70000001788,blue,1,6,1,js-scroll-button-response,195,1,3,96,55           55           65           65           50           55,redblueredblueredblue,1  0  1  0  1  0,1,1
11696534,Button0Red,1,"{""Source1"": 0.50, ""Source2"": 0.55, ""Source3"": 0.65}",40,6,6,6,7092.09999999404,blue,1,6,1,js-scroll-button-response,197,1,3,97,50           65           55           65           55           55,redredblueblueredblue,1  1  0  0  1  0,1,1
11696534,Button0Red,1,"{""Source1"": 0.50, ""Source2"": 0.55, ""Source3"": 0.65}",40,6,6,6,6388.79999998212,blue,1,6,1,js-scroll-button-response,199,1,3,98,50           55           50           55           55           55,redredblueredredblue,1  1  0  1  1  0,1,1
11696534,Button0Red,1,"{""Source1"": 0.50, ""Source2"": 0.55, ""Source3"": 0.65}",40,6,6,6,6278.59999999404,red,1,6,0,js-scroll-button-response,201,0,3,99,65           50           55           55           65           55,blueblueblueredredred,0  0  0  1  1  1,1,1
11696534,Button0Red,1,"{""Source1"": 0.50, ""Source2"": 0.55, ""Source3"": 0.65}",40,6,6,6,4687.79999998212,blue,1,6,1,js-scroll-button-response,203,1,3,100,55           65           65           55           55           50,blueblueblueblueblueblue,0  0  0  0  0  0,1,1
11696534,Button0Red,1,"{""Source1"": 0.50, ""Source2"": 0.55, ""Source3"": 0.65}",40,6,6,6,4858,blue,1,6,1,js-scroll-button-response,205,1,3,101,65           55           65           55           55           55,blueblueblueredredblue,0  0  0  1  1  0,1,1
11696534,Button0Red,1,"{""Source1"": 0.50, ""Source2"": 0.55, ""Source3"": 0.65}",40,6,6,6,5141,blue,1,6,1,js-scroll-button-response,207,1,3,102,50           55           55           55           50           65,blueredblueredblueblue,0  1  0  1  0  0,1,1
11696534,Button0Red,1,"{""Source1"": 0.50, ""Source2"": 0.55, ""Source3"": 0.65}",40,6,6,6,6221.60000002384,blue,1,6,1,js-scroll-button-response,209,1,3,103,50           65           50           65           50           55,redblueblueblueblueblue,1  0  0  0  0  0,1,1
11696534,Button0Red,1,"{""Source1"": 0.50, ""Source2"": 0.55, ""Source3"": 0.65}",40,6,6,6,9239.30000001192,blue,0,6,1,js-scroll-button-response,211,0,3,104,65           55           55           50           55           55,redredredblueredblue,1  1  1  0  1  0,1,1
11696534,Button0Red,1,"{""Source1"": 0.50, ""Source2"": 0.55, ""Source3"": 0.65}",40,6,6,6,5392.29999998212,blue,1,6,1,js-scroll-button-response,213,1,3,105,55           65           65           65           55           50,redblueblueblueblueblue,1  0  0  0  0  0,1,1
11696534,Button0Red,1,"{""Source1"": 0.50, ""Source2"": 0.55, ""Source3"": 0.65}",40,6,6,6,5323.40000000596,blue,1,6,1,js-scroll-button-response,215,1,3,106,65           55           55           50           55           65,blueredblueredblueblue,0  1  0  1  0  0,1,1
11696534,Button0Red,1,"{""Source1"": 0.50, ""Source2"": 0.55, ""Source3"": 0.65}",40,6,6,6,5576.40000000596,blue,1,6,1,js-scroll-button-response,217,1,3,107,50           50           65           55           65           55,redredblueredblueblue,1  1  0  1  0  0,1,1
11696534,Button0Red,1,"{""Source1"": 0.50, ""Source2"": 0.55, ""Source3"": 0.65}",40,6,6,6,5065.09999999404,blue,1,6,1,js-scroll-button-response,219,1,3,108,55           65           55           55           55           65,blueblueredblueblueblue,0  0  1  0  0  0,1,1
11696534,Button0Red,1,"{""Source1"": 0.50, ""Source2"": 0.55, ""Source3"": 0.65}",40,6,6,6,5349.40000000596,blue,1,6,1,js-scroll-button-response,221,1,3,109,55           65           50           65           50           55,redblueblueblueblueblue,1  0  0  0  0  0,1,1
11696534,Button0Red,1,"{""Source1"": 0.50, ""Source2"": 0.55, ""Source3"": 0.65}",40,6,6,6,6137.40000000596,blue,1,6,1,js-scroll-button-response,223,1,3,110,50           50           55           50           65           50,redredbluebluebluered,1  1  0  0  0  1,1,1
11696534,Button0Red,1,"{""Source1"": 0.50, ""Source2"": 0.55, ""Source3"": 0.65}",40,6,6,6,6170.40000000596,red,1,6,0,js-scroll-button-response,225,0,3,111,50           50           65           50           65           55,blueredredredblueblue,0  1  1  1  0  0,1,1
11696534,Button0Red,1,"{""Source1"": 0.50, ""Source2"": 0.55, ""Source3"": 0.65}",40,6,6,6,7408,red,1,6,0,js-scroll-button-response,227,0,3,112,65           50           65           50           55           65,blueredredredblueblue,0  1  1  1  0  0,1,1
11696534,Button0Red,1,"{""Source1"": 0.50, ""Source2"": 0.55, ""Source3"": 0.65}",40,6,6,6,5747.90000000596,red,0,6,0,js-scroll-button-response,229,1,3,113,55           65           55           65           65           55,blueredredredbluered,0  1  1  1  0  1,1,1
11696534,Button0Red,1,"{""Source1"": 0.50, ""Source2"": 0.55, ""Source3"": 0.65}",40,6,6,6,9515.90000000596,red,0,6,0,js-scroll-button-response,231,1,3,114,55           65           50           50           50           65,redredbluebluebluered,1  1  0  0  0  1,1,1
11696534,Button0Red,1,"{""Source1"": 0.50, ""Source2"": 0.55, ""Source3"": 0.65}",40,6,6,6,6469.69999998808,blue,0,6,1,js-scroll-button-response,233,0,3,115,55           55           65           55           55           50,redredblueredredred,1  1  0  1  1  1,1,1
11696534,Button0Red,1,"{""Source1"": 0.50, ""Source2"": 0.55, ""Source3"": 0.65}",40,6,6,6,7407.09999999404,red,1,6,0,js-scroll-button-response,235,0,3,116,50           55           65           55           55           50,blueredblueredblueblue,0  1  0  1  0  0,1,1
11696534,Button0Red,1,"{""Source1"": 0.50, ""Source2"": 0.55, ""Source3"": 0.65}",40,6,6,6,5025.40000000596,blue,1,6,1,js-scroll-button-response,237,1,3,117,65           65           50           50           55           50,blueredredblueredblue,0  1  1  0  1  0,1,1
11696534,Button0Red,1,"{""Source1"": 0.50, ""Source2"": 0.55, ""Source3"": 0.65}",40,6,6,6,5998.40000000596,blue,0,6,1,js-scroll-button-response,239,0,3,118,50           55           55           65           50           55,redblueredredredred,1  0  1  1  1  1,1,1
11696534,Button0Red,1,"{""Source1"": 0.50, ""Source2"": 0.55, ""Source3"": 0.65}",40,6,6,6,5323.39999997616,red,1,6,0,js-scroll-button-response,241,0,3,119,65           65           50           50           65           55,blueblueredredredblue,0  0  1  1  1  0,1,1
11696534,Button0Red,1,"{""Source1"": 0.50, ""Source2"": 0.55, ""Source3"": 0.65}",40,6,6,6,15038.400000006,red,0,6,0,js-scroll-button-response,243,1,3,120,50           65           65           65           55           55,redredredredblueblue,1  1  1  1  0  0,1,1
11696534,Button0Red,1,"{""Source1"": 0.50, ""Source2"": 0.55, ""Source3"": 0.65}",40,6,6,6,5779.69999998808,red,1,6,0,js-scroll-button-response,246,0,4,121,65           50           50           65           55           50,blueredredblueredblue,0  1  1  0  1  0,1,1
11696534,Button0Red,1,"{""Source1"": 0.50, ""Source2"": 0.55, ""Source3"": 0.65}",40,6,6,6,5183.09999999404,blue,1,6,1,js-scroll-button-response,248,1,4,122,50           50           55           50           65           50,blueredblueredbluered,0  1  0  1  0  1,1,1
11696534,Button0Red,1,"{""Source1"": 0.50, ""Source2"": 0.55, ""Source3"": 0.65}",40,6,6,6,4938.40000000596,blue,1,6,1,js-scroll-button-response,250,1,4,123,55           65           65           65           50           50,redbluebluebluebluered,1  0  0  0  0  1,1,1
11696534,Button0Red,1,"{""Source1"": 0.50, ""Source2"": 0.55, ""Source3"": 0.65}",40,6,6,6,5387.39999997616,red,1,6,0,js-scroll-button-response,252,0,4,124,55           65           50           65           50           50,blueredredredblueblue,0  1  1  1  0  0,1,1
11696534,Button0Red,1,"{""Source1"": 0.50, ""Source2"": 0.55, ""Source3"": 0.65}",40,6,6,6,5260.10000002384,blue,1,6,1,js-scroll-button-response,254,1,4,125,50  65  65  65  50  50,blueredredredblueblue,0  1  1  1  0  0,1,1
11696534,Button0Red,1,"{""Source1"": 0.50, ""Source2"": 0.55, ""Source3"": 0.65}",40,6,6,6,7174,blue,0,6,1,js-scroll-button-response,256,0,4,126,55           65           55           50           55           65,redredblueblueredred,1  1  0  0  1  1,1,1
11696534,Button0Red,1,"{""Source1"": 0.50, ""Source2"": 0.55, ""Source3"": 0.65}",40,6,6,6,4596,red,1,6,0,js-scroll-button-response,258,0,4,127,50           50           65           65           65           55,redblueredblueredblue,1  0  1  0  1  0,1,1
11696534,Button0Red,1,"{""Source1"": 0.50, ""Source2"": 0.55, ""Source3"": 0.65}",40,6,6,6,9206.5,blue,1,6,1,js-scroll-button-response,260,1,4,128,50           50           50           55           65           65,blueredredbluebluered,0  1  1  0  0  1,1,1
11696534,Button0Red,1,"{""Source1"": 0.50, ""Source2"": 0.55, ""Source3"": 0.65}",40,6,6,6,7511.19999998808,red,1,6,0,js-scroll-button-response,262,0,4,129,55           65           55           50           50           50,redredblueredblueblue,1  1  0  1  0  0,1,1
11696534,Button0Red,1,"{""Source1"": 0.50, ""Source2"": 0.55, ""Source3"": 0.65}",40,6,6,6,5485.19999998808,blue,1,6,1,js-scroll-button-response,264,1,4,130,50           50           65           65           55           50,blueredblueblueblueblue,0  1  0  0  0  0,1,1
11696534,Button0Red,1,"{""Source1"": 0.50, ""Source2"": 0.55, ""Source3"": 0.65}",40,6,6,6,5609.19999998808,blue,1,6,1,js-scroll-button-response,266,1,4,131,50  50  65  65  65  50,blueredbluebluebluered,0  1  0  0  0  1,1,1
11696534,Button0Red,1,"{""Source1"": 0.50, ""Source2"": 0.55, ""Source3"": 0.65}",40,6,6,6,5687.19999998808,blue,1,6,1,js-scroll-button-response,268,1,4,132,50           65           55           55           50           50,blueblueredblueredred,0  0  1  0  1  1,1,1
11696534,Button0Red,1,"{""Source1"": 0.50, ""Source2"": 0.55, ""Source3"": 0.65}",40,6,6,6,6812,red,1,6,0,js-scroll-button-response,270,0,4,133,50           65           50           55           55           55,redblueredredredred,1  0  1  1  1  1,1,1
11696534,Button0Red,1,"{""Source1"": 0.50, ""Source2"": 0.55, ""Source3"": 0.65}",40,6,6,6,5021.40000000596,red,0,6,0,js-scroll-button-response,272,1,4,134,55           55           65           50           50           50,redredredblueredred,1  1  1  0  1  1,1,1
11696534,Button0Red,1,"{""Source1"": 0.50, ""Source2"": 0.55, ""Source3"": 0.65}",40,6,6,6,5568.5,blue,0,6,1,js-scroll-button-response,274,0,4,135,50  65  50  65  65  50,redredredredbluered,1  1  1  1  0  1,1,1
11696534,Button0Red,1,"{""Source1"": 0.50, ""Source2"": 0.55, ""Source3"": 0.65}",40,6,6,6,6179.5,blue,1,6,1,js-scroll-button-response,276,1,4,136,50           65           55           50           55           55,redredblueredbluered,1  1  0  1  0  1,1,1
11696534,Button0Red,1,"{""Source1"": 0.50, ""Source2"": 0.55, ""Source3"": 0.65}",40,6,6,6,8497.20000001788,blue,1,6,1,js-scroll-button-response,278,1,4,137,65  65  50  50  50  50,blueblueredblueredblue,0  0  1  0  1  0,1,1
11696534,Button0Red,1,"{""Source1"": 0.50, ""Source2"": 0.55, ""Source3"": 0.65}",40,6,6,6,14034.099999994,red,0,6,0,js-scroll-button-response,280,1,4,138,50           50           55           50           65           55,redredblueblueredred,1  1  0  0  1  1,1,1
11696534,Button0Red,1,"{""Source1"": 0.50, ""Source2"": 0.55, ""Source3"": 0.65}",40,6,6,6,6442.90000000596,blue,1,6,1,js-scroll-button-response,282,1,4,139,65           65           55           65           50           65,redblueredblueblueblue,1  0  1  0  0  0,1,1
11696534,Button0Red,1,"{""Source1"": 0.50, ""Source2"": 0.55, ""Source3"": 0.65}",40,6,6,6,6225.69999998808,blue,0,6,1,js-scroll-button-response,284,0,4,140,50           50           50           55           50           50,redredredblueredred,1  1  1  0  1  1,1,1
11696534,Button0Red,1,"{""Source1"": 0.50, ""Source2"": 0.55, ""Source3"": 0.65}",40,6,6,6,5965.30000001192,red,1,6,0,js-scroll-button-response,286,0,4,141,50           65           50           55           65           50,blueredblueblueredblue,0  1  0  0  1  0,1,1
11696534,Button0Red,1,"{""Source1"": 0.50, ""Source2"": 0.55, ""Source3"": 0.65}",40,6,6,6,5018,blue,1,6,1,js-scroll-button-response,288,1,4,142,50           50           55           50           55           65,blueblueredredredblue,0  0  1  1  1  0,1,1
11696534,Button0Red,1,"{""Source1"": 0.50, ""Source2"": 0.55, ""Source3"": 0.65}",40,6,6,6,7656.80000001192,red,0,6,0,js-scroll-button-response,290,1,4,143,55           50           65           55           65           55,blueredblueredredred,0  1  0  1  1  1,1,1
11696534,Button0Red,1,"{""Source1"": 0.50, ""Source2"": 0.55, ""Source3"": 0.65}",40,6,6,6,5803,blue,1,6,1,js-scroll-button-response,292,1,4,144,65           50           65           65           55           55,blueblueblueblueredblue,0  0  0  0  1  0,1,1
11696534,Button0Red,1,"{""Source1"": 0.50, ""Source2"": 0.55, ""Source3"": 0.65}",40,6,6,6,5465,blue,0,6,1,js-scroll-button-response,294,0,4,145,55           55           55           50           55           55,redredbluebluebluered,1  1  0  0  0  1,1,1
11696534,Button0Red,1,"{""Source1"": 0.50, ""Source2"": 0.55, ""Source3"": 0.65}",40,6,6,6,5055.69999998808,blue,1,6,1,js-scroll-button-response,296,1,4,146,50           65           55           50           55           65,redblueredblueblueblue,1  0  1  0  0  0,1,1
11696534,Button0Red,1,"{""Source1"": 0.50, ""Source2"": 0.55, ""Source3"": 0.65}",40,6,6,6,5449.40000000596,red,1,6,0,js-scroll-button-response,298,0,4,147,55           55           50           65           65           50,blueredblueredblueblue,0  1  0  1  0  0,1,1
11696534,Button0Red,1,"{""Source1"": 0.50, ""Source2"": 0.55, ""Source3"": 0.65}",40,6,6,6,5276.30000001192,red,0,6,0,js-scroll-button-response,300,1,4,148,65           50           65           50           50           55,redblueredbluebluered,1  0  1  0  0  1,1,1
11696534,Button0Red,1,"{""Source1"": 0.50, ""Source2"": 0.55, ""Source3"": 0.65}",40,6,6,6,8014.29999998212,blue,1,6,1,js-scroll-button-response,302,1,4,149,55           65           50           65           55           55,blueredblueblueredblue,0  1  0  0  1  0,1,1
11696534,Button0Red,1,"{""Source1"": 0.50, ""Source2"": 0.55, ""Source3"": 0.65}",40,6,6,6,5677.79999998212,red,1,6,0,js-scroll-button-response,304,0,4,150,55           50           55           55           50           50,blueblueredblueblueblue,0  0  1  0  0  0,1,1
11696534,Button0Red,1,"{""Source1"": 0.50, ""Source2"": 0.55, ""Source3"": 0.65}",40,6,6,6,6176.29999998212,red,1,6,0,js-scroll-button-response,306,0,4,151,50           50           55           65           55           55,redredredbluebluered,1  1  1  0  0  1,1,1
11696534,Button0Red,1,"{""Source1"": 0.50, ""Source2"": 0.55, ""Source3"": 0.65}",40,6,6,6,4985.09999999404,red,0,6,0,js-scroll-button-response,308,1,4,152,55           65           50           55           65           55,redblueredblueredred,1  0  1  0  1  1,1,1
11696534,Button0Red,1,"{""Source1"": 0.50, ""Source2"": 0.55, ""Source3"": 0.65}",40,6,6,6,4949.40000000596,blue,1,6,1,js-scroll-button-response,310,1,4,153,65  65  50  65  50  65,blueblueredbluebluered,0  0  1  0  0  1,1,1
11696534,Button0Red,1,"{""Source1"": 0.50, ""Source2"": 0.55, ""Source3"": 0.65}",40,6,6,6,7743.79999998212,blue,1,6,1,js-scroll-button-response,312,1,4,154,55           50           55           50           50           65,redredredblueblueblue,1  1  1  0  0  0,1,1
11696534,Button0Red,1,"{""Source1"": 0.50, ""Source2"": 0.55, ""Source3"": 0.65}",40,6,6,6,5376.69999998808,blue,1,6,1,js-scroll-button-response,314,1,4,155,65           50           50           55           65           65,blueredblueredblueblue,0  1  0  1  0  0,1,1
11696534,Button0Red,1,"{""Source1"": 0.50, ""Source2"": 0.55, ""Source3"": 0.65}",40,6,6,6,6173.20000001788,blue,1,6,1,js-scroll-button-response,316,1,4,156,50           55           50           50           55           50,blueblueblueblueblueblue,0  0  0  0  0  0,1,1
11696534,Button0Red,1,"{""Source1"": 0.50, ""Source2"": 0.55, ""Source3"": 0.65}",40,6,6,6,5725.40000000596,blue,1,6,1,js-scroll-button-response,318,1,4,157,65           50           50           50           55           50,blueredblueblueblueblue,0  1  0  0  0  0,1,1
11696534,Button0Red,1,"{""Source1"": 0.50, ""Source2"": 0.55, ""Source3"": 0.65}",40,6,6,6,7803.80000001192,blue,0,6,1,js-scroll-button-response,320,0,4,158,55           55           55           50           55           50,blueredredredbluered,0  1  1  1  0  1,1,1
11696534,Button0Red,1,"{""Source1"": 0.50, ""Source2"": 0.55, ""Source3"": 0.65}",40,6,6,6,5023,blue,1,6,1,js-scroll-button-response,322,1,4,159,50           55           50           50           65           65,blueblueblueredblueblue,0  0  0  1  0  0,1,1
11696534,Button0Red,1,"{""Source1"": 0.50, ""Source2"": 0.55, ""Source3"": 0.65}",40,6,6,6,6167.40000000596,blue,1,6,1,js-scroll-button-response,324,1,4,160,55           55           50           55           55           50,blueblueblueredblueblue,0  0  0  1  0  0,1,1
11696534,Button0Red,1,"{""Source1"": 0.50, ""Source2"": 0.55, ""Source3"": 0.65}",40,6,6,6,13297.099999994,blue,1,6,1,js-scroll-button-response,327,1,5,161,55           65           50           50           50           50,blueblueblueblueredred,0  0  0  0  1  1,1,1
11696534,Button0Red,1,"{""Source1"": 0.50, ""Source2"": 0.55, ""Source3"": 0.65}",40,6,6,6,8635.59999999404,blue,0,6,1,js-scroll-button-response,329,0,5,162,65  50  65  65  50  65,blueredblueblueredred,0  1  0  0  1  1,1,1
11696534,Button0Red,1,"{""Source1"": 0.50, ""Source2"": 0.55, ""Source3"": 0.65}",40,6,6,6,6452.90000000596,red,0,6,0,js-scroll-button-response,331,1,5,163,65           55           50           55           55           50,redredredblueblueblue,1  1  1  0  0  0,1,1
11696534,Button0Red,1,"{""Source1"": 0.50, ""Source2"": 0.55, ""Source3"": 0.65}",40,6,6,6,6067.69999998808,blue,1,6,1,js-scroll-button-response,333,1,5,164,50           55           55           50           50           65,redblueredredblueblue,1  0  1  1  0  0,1,1
11696534,Button0Red,1,"{""Source1"": 0.50, ""Source2"": 0.55, ""Source3"": 0.65}",40,6,6,6,5883,blue,1,6,1,js-scroll-button-response,335,1,5,165,55           65           55           65           55           50,blueredblueredbluered,0  1  0  1  0  1,1,1
11696534,Button0Red,1,"{""Source1"": 0.50, ""Source2"": 0.55, ""Source3"": 0.65}",40,6,6,6,6074.90000000596,red,0,6,0,js-scroll-button-response,337,1,5,166,55           50           65           55           65           65,redblueredredredred,1  0  1  1  1  1,1,1
11696534,Button0Red,1,"{""Source1"": 0.50, ""Source2"": 0.55, ""Source3"": 0.65}",40,6,6,6,7980.40000000596,red,0,6,0,js-scroll-button-response,339,1,5,167,65           65           50           50           55           65,redredredbluebluered,1  1  1  0  0  1,1,1
11696534,Button0Red,1,"{""Source1"": 0.50, ""Source2"": 0.55, ""Source3"": 0.65}",40,6,6,6,6671.59999999404,blue,1,6,1,js-scroll-button-response,341,1,5,168,65           65           65           50           55           50,blueblueredredredred,0  0  1  1  1  1,1,1
11696534,Button0Red,1,"{""Source1"": 0.50, ""Source2"": 0.55, ""Source3"": 0.65}",40,6,6,6,12198.2000000179,blue,1,6,1,js-scroll-button-response,343,1,5,169,50           50           65           55           65           50,blueblueblueredbluered,0  0  0  1  0  1,1,1
11696534,Button0Red,1,"{""Source1"": 0.50, ""Source2"": 0.55, ""Source3"": 0.65}",40,6,6,6,7112.09999999404,blue,1,6,1,js-scroll-button-response,345,1,5,170,50           55           50           50           50           55,redblueblueredredblue,1  0  0  1  1  0,1,1
11696534,Button0Red,1,"{""Source1"": 0.50, ""Source2"": 0.55, ""Source3"": 0.65}",40,6,6,6,5610.09999999404,red,1,6,0,js-scroll-button-response,347,0,5,171,50           65           55           65           65           55,blueredredblueredblue,0  1  1  0  1  0,1,1
11696534,Button0Red,1,"{""Source1"": 0.50, ""Source2"": 0.55, ""Source3"": 0.65}",40,6,6,6,5560.29999998212,blue,1,6,1,js-scroll-button-response,349,1,5,172,65           55           55           50           50           65,bluebluebluebluebluered,0  0  0  0  0  1,1,1
11696534,Button0Red,1,"{""Source1"": 0.50, ""Source2"": 0.55, ""Source3"": 0.65}",40,6,6,6,5987.79999998212,blue,1,6,1,js-scroll-button-response,351,1,5,173,50           55           65           50           55           55,blueredredblueredblue,0  1  1  0  1  0,1,1
11696534,Button0Red,1,"{""Source1"": 0.50, ""Source2"": 0.55, ""Source3"": 0.65}",40,6,6,6,8696.5,red,1,6,0,js-scroll-button-response,353,0,5,174,55           65           65           55           50           50,blueredredredbluered,0  1  1  1  0  1,1,1
11696534,Button0Red,1,"{""Source1"": 0.50, ""Source2"": 0.55, ""Source3"": 0.65}",40,6,6,6,5049.80000001192,red,1,6,0,js-scroll-button-response,355,0,5,175,65           50           55           55           50           65,redblueblueredblueblue,1  0  0  1  0  0,1,1
11696534,Button0Red,1,"{""Source1"": 0.50, ""Source2"": 0.55, ""Source3"": 0.65}",40,6,6,6,4566.59999999404,blue,1,6,1,js-scroll-button-response,357,1,5,176,55           65           50           65           55           65,blueblueredblueblueblue,0  0  1  0  0  0,1,1
11696534,Button0Red,1,"{""Source1"": 0.50, ""Source2"": 0.55, ""Source3"": 0.65}",40,6,6,6,9745.69999998808,blue,1,6,1,js-scroll-button-response,359,1,5,177,55           50           50           50           65           55,redredredredblueblue,1  1  1  1  0  0,1,1
11696534,Button0Red,1,"{""Source1"": 0.50, ""Source2"": 0.55, ""Source3"": 0.65}",40,6,6,6,5073.80000001192,blue,1,6,1,js-scroll-button-response,361,1,5,178,65           50           65           55           55           50,blueblueblueblueblueblue,0  0  0  0  0  0,1,1
11696534,Button0Red,1,"{""Source1"": 0.50, ""Source2"": 0.55, ""Source3"": 0.65}",40,6,6,6,5328.09999999404,blue,1,6,1,js-scroll-button-response,363,1,5,179,55           55           55           55           65           55,redblueredblueblueblue,1  0  1  0  0  0,1,1
11696534,Button0Red,1,"{""Source1"": 0.50, ""Source2"": 0.55, ""Source3"": 0.65}",40,6,6,6,6679.30000001192,red,0,6,0,js-scroll-button-response,365,1,5,180,65           55           65           50           50           55,redblueredblueredred,1  0  1  0  1  1,1,1
11696534,Button0Red,1,"{""Source1"": 0.50, ""Source2"": 0.55, ""Source3"": 0.65}",40,6,6,6,8968.59999999404,red,1,6,0,js-scroll-button-response,367,0,5,181,65  50  65  50  65  65,redblueredbluebluered,1  0  1  0  0  1,1,1
11696534,Button0Red,1,"{""Source1"": 0.50, ""Source2"": 0.55, ""Source3"": 0.65}",40,6,6,6,4749.29999998212,blue,1,6,1,js-scroll-button-response,369,1,5,182,55           65           65           50           65           50,blueblueredredbluered,0  0  1  1  0  1,1,1
11696534,Button0Red,1,"{""Source1"": 0.50, ""Source2"": 0.55, ""Source3"": 0.65}",40,6,6,6,5366.20000001788,red,0,6,0,js-scroll-button-response,371,1,5,183,55           65           55           55           65           50,redredredredredred,1  1  1  1  1  1,1,1
11696534,Button0Red,1,"{""Source1"": 0.50, ""Source2"": 0.55, ""Source3"": 0.65}",40,6,6,6,8077.20000001788,blue,1,6,1,js-scroll-button-response,373,1,5,184,65           55           65           65           55           50,blueredredblueredblue,0  1  1  0  1  0,1,1
11696534,Button0Red,1,"{""Source1"": 0.50, ""Source2"": 0.55, ""Source3"": 0.65}",40,6,6,6,8361.30000001192,red,0,6,0,js-scroll-button-response,375,1,5,185,50           50           50           50           55           65,blueblueredredredred,0  0  1  1  1  1,1,1
11696534,Button0Red,1,"{""Source1"": 0.50, ""Source2"": 0.55, ""Source3"": 0.65}",40,6,6,6,5700.69999998808,red,1,6,0,js-scroll-button-response,377,0,5,186,55           65           50           55           50           50,blueredblueblueredblue,0  1  0  0  1  0,1,1
11696534,Button0Red,1,"{""Source1"": 0.50, ""Source2"": 0.55, ""Source3"": 0.65}",40,6,6,6,5072.19999998808,red,0,6,0,js-scroll-button-response,379,1,5,187,65  50  50  50  50  65,redblueredredredred,1  0  1  1  1  1,1,1
11696534,Button0Red,1,"{""Source1"": 0.50, ""Source2"": 0.55, ""Source3"": 0.65}",40,6,6,6,4994.69999998808,red,1,6,0,js-scroll-button-response,381,0,5,188,65           50           65           55           50           55,blueredredredblueblue,0  1  1  1  0  0,1,1
11696534,Button0Red,1,"{""Source1"": 0.50, ""Source2"": 0.55, ""Source3"": 0.65}",40,6,6,6,5360.70000001788,blue,0,6,1,js-scroll-button-response,383,0,5,189,65           65           50           55           65           65,redredbluebluebluered,1  1  0  0  0  1,1,1
11696534,Button0Red,1,"{""Source1"": 0.50, ""Source2"": 0.55, ""Source3"": 0.65}",40,6,6,6,4386.09999999404,blue,1,6,1,js-scroll-button-response,385,1,5,190,50           55           65           65           50           65,redbluebluebluebluered,1  0  0  0  0  1,1,1
11696534,Button0Red,1,"{""Source1"": 0.50, ""Source2"": 0.55, ""Source3"": 0.65}",40,6,6,6,8629.69999998808,red,0,6,0,js-scroll-button-response,387,1,5,191,50           65           50           65           50           55,redredredredbluered,1  1  1  1  0  1,1,1
11696534,Button0Red,1,"{""Source1"": 0.50, ""Source2"": 0.55, ""Source3"": 0.65}",40,6,6,6,5193.20000001788,blue,1,6,1,js-scroll-button-response,389,1,5,192,55           55           65           65           50           55,redblueredblueblueblue,1  0  1  0  0  0,1,1
11696534,Button0Red,1,"{""Source1"": 0.50, ""Source2"": 0.55, ""Source3"": 0.65}",40,6,6,6,5464.39999997616,blue,1,6,1,js-scroll-button-response,391,1,5,193,50  65  65  65  50  50,blueredbluebluebluered,0  1  0  0  0  1,1,1
11696534,Button0Red,1,"{""Source1"": 0.50, ""Source2"": 0.55, ""Source3"": 0.65}",40,6,6,6,5878,blue,1,6,1,js-scroll-button-response,393,1,5,194,55           65           55           50           65           65,redblueredredblueblue,1  0  1  1  0  0,1,1
11696534,Button0Red,1,"{""Source1"": 0.50, ""Source2"": 0.55, ""Source3"": 0.65}",40,6,6,6,5928.30000001192,blue,1,6,1,js-scroll-button-response,395,1,5,195,50           55           50           55           55           55,redredblueredredblue,1  1  0  1  1  0,1,1
11696534,Button0Red,1,"{""Source1"": 0.50, ""Source2"": 0.55, ""Source3"": 0.65}",40,6,6,6,4982.69999998808,blue,1,6,1,js-scroll-button-response,397,1,5,196,55           65           65           50           65           55,redblueredbluebluered,1  0  1  0  0  1,1,1
11696534,Button0Red,1,"{""Source1"": 0.50, ""Source2"": 0.55, ""Source3"": 0.65}",40,6,6,6,4970.59999999404,blue,1,6,1,js-scroll-button-response,399,1,5,197,55           50           65           50           55           65,redblueblueredredred,1  0  0  1  1  1,1,1
11696534,Button0Red,1,"{""Source1"": 0.50, ""Source2"": 0.55, ""Source3"": 0.65}",40,6,6,6,9728.59999999404,blue,0,6,1,js-scroll-button-response,401,0,5,198,55           50           65           50           50           55,redblueredredredred,1  0  1  1  1  1,1,1
11696534,Button0Red,1,"{""Source1"": 0.50, ""Source2"": 0.55, ""Source3"": 0.65}",40,6,6,6,5101.90000000596,blue,0,6,1,js-scroll-button-response,403,0,5,199,55           65           50           65           55           65,blueredredredredred,0  1  1  1  1  1,1,1
11696534,Button0Red,1,"{""Source1"": 0.50, ""Source2"": 0.55, ""Source3"": 0.65}",40,6,6,6,4743.69999998808,blue,1,6,1,js-scroll-button-response,405,1,5,200,65           55           65           55           65           50,redredblueredblueblue,1  1  0  1  0  0,1,1
11696534,Button0Red,1,"{""Source1"": 0.50, ""Source2"": 0.55, ""Source3"": 0.65}",40,6,6,6,5910.40000000596,blue,1,6,1,js-scroll-button-response,408,1,6,201,50  50  65  65  50  50,blueredredblueredred,0  1  1  0  1  1,1,1
11696534,Button0Red,1,"{""Source1"": 0.50, ""Source2"": 0.55, ""Source3"": 0.65}",40,6,6,6,5804.80000001192,red,0,6,0,js-scroll-button-response,410,1,6,202,55           55           55           50           50           65,blueblueblueredredred,0  0  0  1  1  1,1,1
11696534,Button0Red,1,"{""Source1"": 0.50, ""Source2"": 0.55, ""Source3"": 0.65}",40,6,6,6,5328,red,1,6,0,js-scroll-button-response,412,0,6,203,65           50           55           55           55           50,blueredredredblueblue,0  1  1  1  0  0,1,1
11696534,Button0Red,1,"{""Source1"": 0.50, ""Source2"": 0.55, ""Source3"": 0.65}",40,6,6,6,4548.5,blue,1,6,1,js-scroll-button-response,414,1,6,204,50           65           50           65           50           55,redblueredblueredred,1  0  1  0  1  1,1,1
11696534,Button0Red,1,"{""Source1"": 0.50, ""Source2"": 0.55, ""Source3"": 0.65}",40,6,6,6,6112.90000000596,blue,1,6,1,js-scroll-button-response,416,1,6,205,50  50  50  50  65  65,redredblueredbluered,1  1  0  1  0  1,1,1
11696534,Button0Red,1,"{""Source1"": 0.50, ""Source2"": 0.55, ""Source3"": 0.65}",40,6,6,6,5906.59999999404,red,0,6,0,js-scroll-button-response,418,1,6,206,65           50           65           65           55           65,blueblueredredbluered,0  0  1  1  0  1,1,1
11696534,Button0Red,1,"{""Source1"": 0.50, ""Source2"": 0.55, ""Source3"": 0.65}",40,6,6,6,5696.90000000596,red,1,6,0,js-scroll-button-response,420,0,6,207,65           65           65           65           65           55,blueredredredbluered,0  1  1  1  0  1,1,1
11696534,Button0Red,1,"{""Source1"": 0.50, ""Source2"": 0.55, ""Source3"": 0.65}",40,6,6,6,5215.10000002384,blue,1,6,1,js-scroll-button-response,422,1,6,208,65           55           55           65           55           50,blueblueblueredredblue,0  0  0  1  1  0,1,1
11696534,Button0Red,1,"{""Source1"": 0.50, ""Source2"": 0.55, ""Source3"": 0.65}",40,6,6,6,5254.59999999404,blue,1,6,1,js-scroll-button-response,424,1,6,209,65           50           55           55           55           65,blueredblueblueblueblue,0  1  0  0  0  0,1,1
11696534,Button0Red,1,"{""Source1"": 0.50, ""Source2"": 0.55, ""Source3"": 0.65}",40,6,6,6,9199.30000001192,blue,0,6,1,js-scroll-button-response,426,0,6,210,50  65  65  50  50  65,blueredblueredbluered,0  1  0  1  0  1,1,1
11696534,Button0Red,1,"{""Source1"": 0.50, ""Source2"": 0.55, ""Source3"": 0.65}",40,6,6,6,5887.90000000596,blue,1,6,1,js-scroll-button-response,428,1,6,211,65           50           50           50           55           65,redblueredredblueblue,1  0  1  1  0  0,1,1
11696534,Button0Red,1,"{""Source1"": 0.50, ""Source2"": 0.55, ""Source3"": 0.65}",40,6,6,6,6365.59999999404,blue,1,6,1,js-scroll-button-response,430,1,6,212,55           55           65           55           50           55,blueblueblueredblueblue,0  0  0  1  0  0,1,1
11696534,Button0Red,1,"{""Source1"": 0.50, ""Source2"": 0.55, ""Source3"": 0.65}",40,6,6,6,4883.59999999404,blue,1,6,1,js-scroll-button-response,432,1,6,213,50  50  65  65  65  65,redredblueredredblue,1  1  0  1  1  0,1,1
11696534,Button0Red,1,"{""Source1"": 0.50, ""Source2"": 0.55, ""Source3"": 0.65}",40,6,6,6,8811.29999998212,red,0,6,0,js-scroll-button-response,434,1,6,214,65           55           50           50           50           55,redblueredredredred,1  0  1  1  1  1,1,1
11696534,Button0Red,1,"{""Source1"": 0.50, ""Source2"": 0.55, ""Source3"": 0.65}",40,6,6,6,5558.20000001788,blue,1,6,1,js-scroll-button-response,436,1,6,215,50           65           55           55           65           50,redblueblueredredblue,1  0  0  1  1  0,1,1
11696534,Button0Red,1,"{""Source1"": 0.50, ""Source2"": 0.55, ""Source3"": 0.65}",40,6,6,6,4890,blue,1,6,1,js-scroll-button-response,438,1,6,216,55           55           65           50           65           65,blueblueblueblueredred,0  0  0  0  1  1,1,1
11696534,Button0Red,1,"{""Source1"": 0.50, ""Source2"": 0.55, ""Source3"": 0.65}",40,6,6,6,4878.30000001192,blue,1,6,1,js-scroll-button-response,440,1,6,217,50           65           50           55           65           50,blueblueredblueblueblue,0  0  1  0  0  0,1,1
11696534,Button0Red,1,"{""Source1"": 0.50, ""Source2"": 0.55, ""Source3"": 0.65}",40,6,6,6,6906.30000001192,red,0,6,0,js-scroll-button-response,442,1,6,218,55           55           65           55           50           65,redredredredbluered,1  1  1  1  0  1,1,1
11696534,Button0Red,1,"{""Source1"": 0.50, ""Source2"": 0.55, ""Source3"": 0.65}",40,6,6,6,4786.09999999404,red,1,6,0,js-scroll-button-response,444,0,6,219,65           50           55           50           55           50,blueblueblueredbluered,0  0  0  1  0  1,1,1
11696534,Button0Red,1,"{""Source1"": 0.50, ""Source2"": 0.55, ""Source3"": 0.65}",40,6,6,6,4967.70000001788,blue,1,6,1,js-scroll-button-response,446,1,6,220,55           55           50           65           50           55,blueblueblueblueredred,0  0  0  0  1  1,1,1
11696534,Button0Red,1,"{""Source1"": 0.50, ""Source2"": 0.55, ""Source3"": 0.65}",40,6,6,6,7437.90000000596,blue,1,6,1,js-scroll-button-response,448,1,6,221,55           55           55           65           65           50,blueblueredblueblueblue,0  0  1  0  0  0,1,1
11696534,Button0Red,1,"{""Source1"": 0.50, ""Source2"": 0.55, ""Source3"": 0.65}",40,6,6,6,5023.69999998808,blue,1,6,1,js-scroll-button-response,450,1,6,222,50  65  50  65  50  50,blueredblueblueblueblue,0  1  0  0  0  0,1,1
11696534,Button0Red,1,"{""Source1"": 0.50, ""Source2"": 0.55, ""Source3"": 0.65}",40,6,6,6,4928.59999999404,blue,1,6,1,js-scroll-button-response,452,1,6,223,65           50           50           50           50           55,blueredredblueredred,0  1  1  0  1  1,1,1
11696534,Button0Red,1,"{""Source1"": 0.50, ""Source2"": 0.55, ""Source3"": 0.65}",40,6,6,6,5444.79999998212,red,1,6,0,js-scroll-button-response,454,0,6,224,65  65  50  65  65  50,blueredredredblueblue,0  1  1  1  0  0,1,1
11696534,Button0Red,1,"{""Source1"": 0.50, ""Source2"": 0.55, ""Source3"": 0.65}",40,6,6,6,5424.09999999404,red,0,6,0,js-scroll-button-response,456,1,6,225,55           55           50           65           55           50,blueredredredblueblue,0  1  1  1  0  0,1,1
11696534,Button0Red,1,"{""Source1"": 0.50, ""Source2"": 0.55, ""Source3"": 0.65}",40,6,6,6,4632.39999997616,blue,1,6,1,js-scroll-button-response,458,1,6,226,50           50           50           65           50           55,redblueredbluebluered,1  0  1  0  0  1,1,1
11696534,Button0Red,1,"{""Source1"": 0.50, ""Source2"": 0.55, ""Source3"": 0.65}",40,6,6,6,8073.69999998808,blue,0,6,1,js-scroll-button-response,460,0,6,227,55           50           55           50           55           50,redredredredredblue,1  1  1  1  1  0,1,1
11696534,Button0Red,1,"{""Source1"": 0.50, ""Source2"": 0.55, ""Source3"": 0.65}",40,6,6,6,4559.5,blue,1,6,1,js-scroll-button-response,462,1,6,228,50           55           50           65           65           55,redblueredbluebluered,1  0  1  0  0  1,1,1
11696534,Button0Red,1,"{""Source1"": 0.50, ""Source2"": 0.55, ""Source3"": 0.65}",40,6,6,6,5080.40000000596,blue,0,6,1,js-scroll-button-response,464,0,6,229,55           65           50           55           55           65,blueredredredredred,0  1  1  1  1  1,1,1
11696534,Button0Red,1,"{""Source1"": 0.50, ""Source2"": 0.55, ""Source3"": 0.65}",40,6,6,6,3806.59999999404,blue,1,6,1,js-scroll-button-response,466,1,6,230,50           55           65           55           50           50,blueredblueredredred,0  1  0  1  1  1,1,1
11696534,Button0Red,1,"{""Source1"": 0.50, ""Source2"": 0.55, ""Source3"": 0.65}",40,6,6,6,5270.40000000596,blue,1,6,1,js-scroll-button-response,468,1,6,231,50  65  65  65  50  65,blueredblueredredblue,0  1  0  1  1  0,1,1
11696534,Button0Red,1,"{""Source1"": 0.50, ""Source2"": 0.55, ""Source3"": 0.65}",40,6,6,6,4089.90000000596,red,1,6,0,js-scroll-button-response,470,0,6,232,55           65           55           65           55           65,redblueredredbluered,1  0  1  1  0  1,1,1
11696534,Button0Red,1,"{""Source1"": 0.50, ""Source2"": 0.55, ""Source3"": 0.65}",40,6,6,6,4368.90000000596,red,1,6,0,js-scroll-button-response,472,0,6,233,55           55           50           65           65           65,blueredblueredblueblue,0  1  0  1  0  0,1,1
11696534,Button0Red,1,"{""Source1"": 0.50, ""Source2"": 0.55, ""Source3"": 0.65}",40,6,6,6,5366.59999999404,red,1,6,0,js-scroll-button-response,474,0,6,234,50           55           65           50           55           50,blueblueblueredbluered,0  0  0  1  0  1,1,1
11696534,Button0Red,1,"{""Source1"": 0.50, ""Source2"": 0.55, ""Source3"": 0.65}",40,6,6,6,7614,red,0,6,0,js-scroll-button-response,476,1,6,235,50           55           50           55           55           65,blueredblueredredred,0  1  0  1  1  1,1,1
11696534,Button0Red,1,"{""Source1"": 0.50, ""Source2"": 0.55, ""Source3"": 0.65}",40,6,6,6,5130.60000002384,blue,0,6,1,js-scroll-button-response,478,0,6,236,55           65           55           55           55           65,blueredblueredbluered,0  1  0  1  0  1,1,1
11696534,Button0Red,1,"{""Source1"": 0.50, ""Source2"": 0.55, ""Source3"": 0.65}",40,6,6,6,3830.30000001192,blue,1,6,1,js-scroll-button-response,480,1,6,237,65  65  65  65  50  65,blueredblueblueblueblue,0  1  0  0  0  0,1,1
11696534,Button0Red,1,"{""Source1"": 0.50, ""Source2"": 0.55, ""Source3"": 0.65}",40,6,6,6,4846.40000000596,red,1,6,0,js-scroll-button-response,482,0,6,238,50           55           65           55           55           55,redredredbluebluered,1  1  1  0  0  1,1,1
11696534,Button0Red,1,"{""Source1"": 0.50, ""Source2"": 0.55, ""Source3"": 0.65}",40,6,6,6,5081,blue,0,6,1,js-scroll-button-response,484,0,6,239,65           50           50           50           55           55,redblueblueblueredred,1  0  0  0  1  1,1,1
11696534,Button0Red,1,"{""Source1"": 0.50, ""Source2"": 0.55, ""Source3"": 0.65}",40,6,6,6,4238.69999998808,blue,1,6,1,js-scroll-button-response,486,1,6,240,65           55           55           50           65           50,blueblueblueredredblue,0  0  0  1  1  0,1,1
11710204,Button0Blue,0,"{""Source1"": 0.50, ""Source2"": 0.55, ""Source3"": 0.65}",40,6,6,6,12840.5,blue,0,6,0,js-scroll-button-response,3,1,1,1,55           65           50           55           50           55,redblueredblueredred,0  1  0  1  0  0,1,1
11710204,Button0Blue,0,"{""Source1"": 0.50, ""Source2"": 0.55, ""Source3"": 0.65}",40,6,6,6,10469.8000000119,blue,1,6,0,js-scroll-button-response,5,0,1,2,55           55           55           50           55           55,redblueblueblueredblue,0  1  1  1  0  1,1,1
11710204,Button0Blue,0,"{""Source1"": 0.50, ""Source2"": 0.55, ""Source3"": 0.65}",40,6,6,6,6719.60000002384,red,0,6,1,js-scroll-button-response,7,0,1,3,50           65           55           65           50           55,blueblueblueblueredblue,1  1  1  1  0  1,1,1
11710204,Button0Blue,0,"{""Source1"": 0.50, ""Source2"": 0.55, ""Source3"": 0.65}",40,6,6,6,13346.1999999881,blue,1,6,0,js-scroll-button-response,9,0,1,4,65           65           55           50           55           65,redblueblueblueredblue,0  1  1  1  0  1,1,1
11710204,Button0Blue,0,"{""Source1"": 0.50, ""Source2"": 0.55, ""Source3"": 0.65}",40,6,6,6,7761.19999998808,red,0,6,1,js-scroll-button-response,11,0,1,5,65           50           50           55           50           65,blueblueredredbluered,1  1  0  0  1  0,1,1
11710204,Button0Blue,0,"{""Source1"": 0.50, ""Source2"": 0.55, ""Source3"": 0.65}",40,6,6,6,8641.80000001192,blue,0,6,0,js-scroll-button-response,13,1,1,6,55           50           65           65           65           65,blueblueblueredbluered,1  1  1  0  1  0,1,1
11710204,Button0Blue,0,"{""Source1"": 0.50, ""Source2"": 0.55, ""Source3"": 0.65}",40,6,6,6,6579.80000001192,blue,0,6,0,js-scroll-button-response,15,1,1,7,50           65           50           55           55           55,redblueredredredred,0  1  0  0  0  0,1,1
11710204,Button0Blue,0,"{""Source1"": 0.50, ""Source2"": 0.55, ""Source3"": 0.65}",40,6,6,6,6550.29999995232,blue,0,6,0,js-scroll-button-response,17,1,1,8,65           50           55           65           50           65,redblueblueblueredblue,0  1  1  1  0  1,1,1
11710204,Button0Blue,0,"{""Source1"": 0.50, ""Source2"": 0.55, ""Source3"": 0.65}",40,6,6,6,6780,red,1,6,1,js-scroll-button-response,19,1,1,9,55           55           65           50           65           55,redblueredredredblue,0  1  0  0  0  1,1,1
11710204,Button0Blue,0,"{""Source1"": 0.50, ""Source2"": 0.55, ""Source3"": 0.65}",40,6,6,6,7660.30000001192,blue,0,6,0,js-scroll-button-response,21,1,1,10,65           50           55           50           65           55,blueredredredblueblue,1  0  0  0  1  1,1,1
11710204,Button0Blue,0,"{""Source1"": 0.50, ""Source2"": 0.55, ""Source3"": 0.65}",40,6,6,6,6487.10000002384,red,1,6,1,js-scroll-button-response,23,1,1,11,50           55           65           65           55           65,redredredblueredred,0  0  0  1  0  0,1,1
11710204,Button0Blue,0,"{""Source1"": 0.50, ""Source2"": 0.55, ""Source3"": 0.65}",40,6,6,6,5961.20000004768,red,1,6,1,js-scroll-button-response,25,1,1,12,55           55           55           55           55           65,redblueredblueredred,0  1  0  1  0  0,1,1
11710204,Button0Blue,0,"{""Source1"": 0.50, ""Source2"": 0.55, ""Source3"": 0.65}",40,6,6,6,7328.29999995232,blue,0,6,0,js-scroll-button-response,27,1,1,13,55           65           50           50           50           55,blueblueblueblueblueblue,1  1  1  1  1  1,1,1
11710204,Button0Blue,0,"{""Source1"": 0.50, ""Source2"": 0.55, ""Source3"": 0.65}",40,6,6,6,5657.30000001192,blue,0,6,0,js-scroll-button-response,29,1,1,14,55           55           55           55           55           50,blueblueblueblueredblue,1  1  1  1  0  1,1,1
11710204,Button0Blue,0,"{""Source1"": 0.50, ""Source2"": 0.55, ""Source3"": 0.65}",40,6,6,6,5576.90000003576,blue,1,6,0,js-scroll-button-response,31,0,1,15,55           50           65           50           50           65,redredredblueredblue,0  0  0  1  0  1,1,1
11710204,Button0Blue,0,"{""Source1"": 0.50, ""Source2"": 0.55, ""Source3"": 0.65}",40,6,6,6,5580.10000002384,blue,1,6,0,js-scroll-button-response,33,0,1,16,55           50           50           65           50           50,blueblueredredbluered,1  1  0  0  1  0,1,1
11710204,Button0Blue,0,"{""Source1"": 0.50, ""Source2"": 0.55, ""Source3"": 0.65}",40,6,6,6,4935,blue,0,6,0,js-scroll-button-response,35,1,1,17,55           55           55           50           50           55,blueredblueredredblue,1  0  1  0  0  1,1,1
11710204,Button0Blue,0,"{""Source1"": 0.50, ""Source2"": 0.55, ""Source3"": 0.65}",40,6,6,6,4909,red,1,6,1,js-scroll-button-response,37,1,1,18,65           55           50           55           50           55,redredblueredbluered,0  0  1  0  1  0,1,1
11710204,Button0Blue,0,"{""Source1"": 0.50, ""Source2"": 0.55, ""Source3"": 0.65}",40,6,6,6,8144.09999996424,red,1,6,1,js-scroll-button-response,39,1,1,19,50           55           65           55           50           65,blueblueredredredblue,1  1  0  0  0  1,1,1
11710204,Button0Blue,0,"{""Source1"": 0.50, ""Source2"": 0.55, ""Source3"": 0.65}",40,6,6,6,5254.5,blue,0,6,0,js-scroll-button-response,41,1,1,20,50           65           65           65           55           55,redblueblueblueredred,0  1  1  1  0  0,1,1
11710204,Button0Blue,0,"{""Source1"": 0.50, ""Source2"": 0.55, ""Source3"": 0.65}",40,6,6,6,5210.5,blue,0,6,0,js-scroll-button-response,43,1,1,21,50           50           65           55           50           50,redblueblueredredred,0  1  1  0  0  0,1,1
11710204,Button0Blue,0,"{""Source1"": 0.50, ""Source2"": 0.55, ""Source3"": 0.65}",40,6,6,6,4547.89999997616,blue,1,6,0,js-scroll-button-response,45,0,1,22,50           50           65           65           55           50,blueblueredredredblue,1  1  0  0  0  1,1,1
11710204,Button0Blue,0,"{""Source1"": 0.50, ""Source2"": 0.55, ""Source3"": 0.65}",40,6,6,6,5335.80000001192,red,1,6,1,js-scroll-button-response,47,1,1,23,55           55           65           55           65           55,redredredredbluered,0  0  0  0  1  0,1,1
11710204,Button0Blue,0,"{""Source1"": 0.50, ""Source2"": 0.55, ""Source3"": 0.65}",40,6,6,6,5015.69999998808,red,0,6,1,js-scroll-button-response,49,0,1,24,50           50           55           50           55           55,redblueredredblueblue,0  1  0  0  1  1,1,1
11710204,Button0Blue,0,"{""Source1"": 0.50, ""Source2"": 0.55, ""Source3"": 0.65}",40,6,6,6,5555.19999998808,red,1,6,1,js-scroll-button-response,51,1,1,25,55           55           50           55           50           55,redblueblueblueredblue,0  1  1  1  0  1,1,1
11710204,Button0Blue,0,"{""Source1"": 0.50, ""Source2"": 0.55, ""Source3"": 0.65}",40,6,6,6,5956.39999997616,blue,1,6,0,js-scroll-button-response,53,0,1,26,65           55           65           50           50           50,blueblueredblueredred,1  1  0  1  0  0,1,1
11710204,Button0Blue,0,"{""Source1"": 0.50, ""Source2"": 0.55, ""Source3"": 0.65}",40,6,6,6,4952.29999995232,blue,0,6,0,js-scroll-button-response,55,1,1,27,50           50           50           55           50           55,redblueredblueblueblue,0  1  0  1  1  1,1,1
11710204,Button0Blue,0,"{""Source1"": 0.50, ""Source2"": 0.55, ""Source3"": 0.65}",40,6,6,6,5612.30000001192,blue,1,6,0,js-scroll-button-response,57,0,1,28,65           65           55           50           65           55,redredredblueblueblue,0  0  0  1  1  1,1,1
11710204,Button0Blue,0,"{""Source1"": 0.50, ""Source2"": 0.55, ""Source3"": 0.65}",40,6,6,6,4894.5,blue,0,6,0,js-scroll-button-response,59,1,1,29,50           65           55           55           50           65,redblueblueblueredblue,0  1  1  1  0  1,1,1
11710204,Button0Blue,0,"{""Source1"": 0.50, ""Source2"": 0.55, ""Source3"": 0.65}",40,6,6,6,4894.39999997616,red,1,6,1,js-scroll-button-response,61,1,1,30,50  65  50  65  65  65,blueredredredredred,1  0  0  0  0  0,1,1
11710204,Button0Blue,0,"{""Source1"": 0.50, ""Source2"": 0.55, ""Source3"": 0.65}",40,6,6,6,4878.09999996424,blue,1,6,0,js-scroll-button-response,63,0,1,31,65           65           55           65           65           65,redredredredredred,0  0  0  0  0  0,1,1
11710204,Button0Blue,0,"{""Source1"": 0.50, ""Source2"": 0.55, ""Source3"": 0.65}",40,6,6,6,4746.30000001192,blue,1,6,0,js-scroll-button-response,65,0,1,32,65           55           50           55           50           50,redredredredredred,0  0  0  0  0  0,1,1
11710204,Button0Blue,0,"{""Source1"": 0.50, ""Source2"": 0.55, ""Source3"": 0.65}",40,6,6,6,5548.69999998808,blue,1,6,0,js-scroll-button-response,67,0,1,33,65           55           55           65           50           65,redblueredredredblue,0  1  0  0  0  1,1,1
11710204,Button0Blue,0,"{""Source1"": 0.50, ""Source2"": 0.55, ""Source3"": 0.65}",40,6,6,6,5236.69999998808,red,1,6,1,js-scroll-button-response,69,1,1,34,65           55           55           55           50           65,redredbluebluebluered,0  0  1  1  1  0,1,1
11710204,Button0Blue,0,"{""Source1"": 0.50, ""Source2"": 0.55, ""Source3"": 0.65}",40,6,6,6,5146.5,blue,0,6,0,js-scroll-button-response,71,1,1,35,50           55           65           50           50           55,redredblueredblueblue,0  0  1  0  1  1,1,1
11710204,Button0Blue,0,"{""Source1"": 0.50, ""Source2"": 0.55, ""Source3"": 0.65}",40,6,6,6,6145.89999997616,red,1,6,1,js-scroll-button-response,73,1,1,36,55           55           65           65           55           55,redredredredblueblue,0  0  0  0  1  1,1,1
11710204,Button0Blue,0,"{""Source1"": 0.50, ""Source2"": 0.55, ""Source3"": 0.65}",40,6,6,6,5095.20000004768,blue,0,6,0,js-scroll-button-response,75,1,1,37,50  50  50  65  65  50,blueredredbluebluered,1  0  0  1  1  0,1,1
11710204,Button0Blue,0,"{""Source1"": 0.50, ""Source2"": 0.55, ""Source3"": 0.65}",40,6,6,6,5188.19999998808,blue,1,6,0,js-scroll-button-response,77,0,1,38,65  65  50  50  50  65,redredblueredredblue,0  0  1  0  0  1,1,1
11710204,Button0Blue,0,"{""Source1"": 0.50, ""Source2"": 0.55, ""Source3"": 0.65}",40,6,6,6,9974,red,1,6,1,js-scroll-button-response,79,1,1,39,65           55           55           50           50           65,blueredredbluebluered,1  0  0  1  1  0,1,1
11710204,Button0Blue,0,"{""Source1"": 0.50, ""Source2"": 0.55, ""Source3"": 0.65}",40,6,6,6,6504.39999997616,blue,0,6,0,js-scroll-button-response,81,1,1,40,55           50           55           65           65           50,blueredbluebluebluered,1  0  1  1  1  0,1,1
11710204,Button0Blue,0,"{""Source1"": 0.50, ""Source2"": 0.55, ""Source3"": 0.65}",40,6,6,6,4938.19999998808,red,0,6,1,js-scroll-button-response,84,0,2,41,55           55           55           50           65           55,blueredredredblueblue,1  0  0  0  1  1,1,1
11710204,Button0Blue,0,"{""Source1"": 0.50, ""Source2"": 0.55, ""Source3"": 0.65}",40,6,6,6,4286.60000002384,blue,0,6,0,js-scroll-button-response,86,1,2,42,55           50           55           50           50           65,blueblueredblueblueblue,1  1  0  1  1  1,1,1
11710204,Button0Blue,0,"{""Source1"": 0.50, ""Source2"": 0.55, ""Source3"": 0.65}",40,6,6,6,5026.09999996424,blue,1,6,0,js-scroll-button-response,88,0,2,43,65           65           50           50           65           55,redblueblueblueredred,0  1  1  1  0  0,1,1
11710204,Button0Blue,0,"{""Source1"": 0.50, ""Source2"": 0.55, ""Source3"": 0.65}",40,6,6,6,5224.30000001192,blue,0,6,0,js-scroll-button-response,90,1,2,44,55           55           65           55           55           65,redredblueblueblueblue,0  0  1  1  1  1,1,1
11710204,Button0Blue,0,"{""Source1"": 0.50, ""Source2"": 0.55, ""Source3"": 0.65}",40,6,6,6,5088.5,blue,1,6,0,js-scroll-button-response,92,0,2,45,55           55           65           55           50           50,blueblueredblueredblue,1  1  0  1  0  1,1,1
11710204,Button0Blue,0,"{""Source1"": 0.50, ""Source2"": 0.55, ""Source3"": 0.65}",40,6,6,6,5264.39999997616,red,1,6,1,js-scroll-button-response,94,1,2,46,50           65           55           50           65           65,redblueredblueredred,0  1  0  1  0  0,1,1
11710204,Button0Blue,0,"{""Source1"": 0.50, ""Source2"": 0.55, ""Source3"": 0.65}",40,6,6,6,6570.19999998808,red,0,6,1,js-scroll-button-response,96,0,2,47,65           55           50           55           65           55,redblueblueblueredblue,0  1  1  1  0  1,1,1
11710204,Button0Blue,0,"{""Source1"": 0.50, ""Source2"": 0.55, ""Source3"": 0.65}",40,6,6,6,4729,blue,1,6,0,js-scroll-button-response,98,0,2,48,55           50           65           65           55           65,blueredblueredredred,1  0  1  0  0  0,1,1
11710204,Button0Blue,0,"{""Source1"": 0.50, ""Source2"": 0.55, ""Source3"": 0.65}",40,6,6,6,5091.59999996424,blue,0,6,0,js-scroll-button-response,100,1,2,49,55           65           65           65           65           50,blueblueredblueredred,1  1  0  1  0  0,1,1
11710204,Button0Blue,0,"{""Source1"": 0.50, ""Source2"": 0.55, ""Source3"": 0.65}",40,6,6,6,4970.59999996424,red,0,6,1,js-scroll-button-response,102,0,2,50,55           65           55           65           55           50,redblueblueredbluered,0  1  1  0  1  0,1,1
11710204,Button0Blue,0,"{""Source1"": 0.50, ""Source2"": 0.55, ""Source3"": 0.65}",40,6,6,6,5004.40000003576,blue,0,6,0,js-scroll-button-response,104,1,2,51,65           65           50           55           65           50,redblueredbluebluered,0  1  0  1  1  0,1,1
11710204,Button0Blue,0,"{""Source1"": 0.50, ""Source2"": 0.55, ""Source3"": 0.65}",40,6,6,6,6800.5,blue,0,6,0,js-scroll-button-response,106,1,2,52,50           65           55           65           50           55,redredblueblueredblue,0  0  1  1  0  1,1,1
11710204,Button0Blue,0,"{""Source1"": 0.50, ""Source2"": 0.55, ""Source3"": 0.65}",40,6,6,6,5612.60000002384,blue,1,6,0,js-scroll-button-response,108,0,2,53,55           50           65           65           55           50,redredblueredredblue,0  0  1  0  0  1,1,1
11710204,Button0Blue,0,"{""Source1"": 0.50, ""Source2"": 0.55, ""Source3"": 0.65}",40,6,6,6,13038.5,blue,0,6,0,js-scroll-button-response,110,1,2,54,55           50           55           50           65           65,blueredblueredblueblue,1  0  1  0  1  1,1,1
11710204,Button0Blue,0,"{""Source1"": 0.50, ""Source2"": 0.55, ""Source3"": 0.65}",40,6,6,6,4492.39999997616,blue,0,6,0,js-scroll-button-response,112,1,2,55,65           65           55           50           50           65,redblueblueblueblueblue,0  1  1  1  1  1,1,1
11710204,Button0Blue,0,"{""Source1"": 0.50, ""Source2"": 0.55, ""Source3"": 0.65}",40,6,6,6,11322.1000000238,red,0,6,1,js-scroll-button-response,114,0,2,56,65           55           55           65           55           55,blueblueblueblueredred,1  1  1  1  0  0,1,1
11710204,Button0Blue,0,"{""Source1"": 0.50, ""Source2"": 0.55, ""Source3"": 0.65}",40,6,6,6,4403.80000001192,red,1,6,1,js-scroll-button-response,116,1,2,57,65           55           65           55           55           55,blueblueredredredblue,1  1  0  0  0  1,1,1
11710204,Button0Blue,0,"{""Source1"": 0.50, ""Source2"": 0.55, ""Source3"": 0.65}",40,6,6,6,4644.89999997616,blue,1,6,0,js-scroll-button-response,118,0,2,58,65           65           65           55           55           50,redredbluebluebluered,0  0  1  1  1  0,1,1
11710204,Button0Blue,0,"{""Source1"": 0.50, ""Source2"": 0.55, ""Source3"": 0.65}",40,6,6,6,4512.09999996424,red,1,6,1,js-scroll-button-response,120,1,2,59,65           65           55           65           65           55,redredblueblueredblue,0  0  1  1  0  1,1,1
11710204,Button0Blue,0,"{""Source1"": 0.50, ""Source2"": 0.55, ""Source3"": 0.65}",40,6,6,6,4347.79999995232,blue,0,6,0,js-scroll-button-response,122,1,2,60,50           50           55           50           55           55,redredbluebluebluered,0  0  1  1  1  0,1,1
11710204,Button0Blue,0,"{""Source1"": 0.50, ""Source2"": 0.55, ""Source3"": 0.65}",40,6,6,6,4497.09999996424,blue,1,6,0,js-scroll-button-response,124,0,2,61,55           55           65           65           55           65,redblueredredredred,0  1  0  0  0  0,1,1
11710204,Button0Blue,0,"{""Source1"": 0.50, ""Source2"": 0.55, ""Source3"": 0.65}",40,6,6,6,4456.39999997616,blue,0,6,0,js-scroll-button-response,126,1,2,62,50           55           50           55           65           65,blueblueredblueblueblue,1  1  0  1  1  1,1,1
11710204,Button0Blue,0,"{""Source1"": 0.50, ""Source2"": 0.55, ""Source3"": 0.65}",40,6,6,6,4465.69999998808,blue,0,6,0,js-scroll-button-response,128,1,2,63,55           55           50           50           50           50,blueblueblueredredred,1  1  1  0  0  0,1,1
11710204,Button0Blue,0,"{""Source1"": 0.50, ""Source2"": 0.55, ""Source3"": 0.65}",40,6,6,6,5172.69999998808,red,1,6,1,js-scroll-button-response,130,1,2,64,65           50           50           55           55           50,blueblueredredredred,1  1  0  0  0  0,1,1
11710204,Button0Blue,0,"{""Source1"": 0.50, ""Source2"": 0.55, ""Source3"": 0.65}",40,6,6,6,5817.5,red,1,6,1,js-scroll-button-response,132,1,2,65,50  50  50  65  65  65,blueredblueredbluered,1  0  1  0  1  0,1,1
11710204,Button0Blue,0,"{""Source1"": 0.50, ""Source2"": 0.55, ""Source3"": 0.65}",40,6,6,6,5300.5,red,1,6,1,js-scroll-button-response,134,1,2,66,55           50           55           65           65           55,redblueredredredblue,0  1  0  0  0  1,1,1
11710204,Button0Blue,0,"{""Source1"": 0.50, ""Source2"": 0.55, ""Source3"": 0.65}",40,6,6,6,5778.39999997616,blue,0,6,0,js-scroll-button-response,136,1,2,67,65           50           55           65           55           55,redredredblueblueblue,0  0  0  1  1  1,1,1
11710204,Button0Blue,0,"{""Source1"": 0.50, ""Source2"": 0.55, ""Source3"": 0.65}",40,6,6,6,5006.59999996424,blue,0,6,0,js-scroll-button-response,138,1,2,68,50           50           55           65           55           55,redredblueblueredred,0  0  1  1  0  0,1,1
11710204,Button0Blue,0,"{""Source1"": 0.50, ""Source2"": 0.55, ""Source3"": 0.65}",40,6,6,6,4847.80000001192,blue,0,6,0,js-scroll-button-response,140,1,2,69,55           50           50           55           65           55,redblueredredbluered,0  1  0  0  1  0,1,1
11710204,Button0Blue,0,"{""Source1"": 0.50, ""Source2"": 0.55, ""Source3"": 0.65}",40,6,6,6,4607.89999997616,blue,0,6,0,js-scroll-button-response,142,1,2,70,65           50           65           65           55           55,redredblueblueblueblue,0  0  1  1  1  1,1,1
11710204,Button0Blue,0,"{""Source1"": 0.50, ""Source2"": 0.55, ""Source3"": 0.65}",40,6,6,6,4370.20000004768,blue,1,6,0,js-scroll-button-response,144,0,2,71,50           50           55           65           50           50,redredblueredbluered,0  0  1  0  1  0,1,1
11710204,Button0Blue,0,"{""Source1"": 0.50, ""Source2"": 0.55, ""Source3"": 0.65}",40,6,6,6,4128.5,blue,1,6,0,js-scroll-button-response,146,0,2,72,50           50           65           55           55           55,blueredredredblueblue,1  0  0  0  1  1,1,1
11710204,Button0Blue,0,"{""Source1"": 0.50, ""Source2"": 0.55, ""Source3"": 0.65}",40,6,6,6,4457.69999998808,blue,0,6,0,js-scroll-button-response,148,1,2,73,65           50           55           55           50           65,blueblueblueblueredred,1  1  1  1  0  0,1,1
11710204,Button0Blue,0,"{""Source1"": 0.50, ""Source2"": 0.55, ""Source3"": 0.65}",40,6,6,6,6970.40000003576,red,0,6,1,js-scroll-button-response,150,0,2,74,55           50           65           50           65           65,blueredredblueblueblue,1  0  0  1  1  1,1,1
11710204,Button0Blue,0,"{""Source1"": 0.50, ""Source2"": 0.55, ""Source3"": 0.65}",40,6,6,6,4442.5,blue,0,6,0,js-scroll-button-response,152,1,2,75,50           55           65           50           55           55,blueblueblueblueredred,1  1  1  1  0  0,1,1
11710204,Button0Blue,0,"{""Source1"": 0.50, ""Source2"": 0.55, ""Source3"": 0.65}",40,6,6,6,4330.60000002384,blue,1,6,0,js-scroll-button-response,154,0,2,76,50           55           65           55           65           55,redblueredredredblue,0  1  0  0  0  1,1,1
11710204,Button0Blue,0,"{""Source1"": 0.50, ""Source2"": 0.55, ""Source3"": 0.65}",40,6,6,6,4356,red,1,6,1,js-scroll-button-response,156,1,2,77,55           55           50           65           50           65,redredblueredredred,0  0  1  0  0  0,1,1
11710204,Button0Blue,0,"{""Source1"": 0.50, ""Source2"": 0.55, ""Source3"": 0.65}",40,6,6,6,4844.30000001192,blue,1,6,0,js-scroll-button-response,158,0,2,78,55           50           65           50           55           50,blueredredbluebluered,1  0  0  1  1  0,1,1
11710204,Button0Blue,0,"{""Source1"": 0.50, ""Source2"": 0.55, ""Source3"": 0.65}",40,6,6,6,4900.19999998808,red,1,6,1,js-scroll-button-response,160,1,2,79,50  65  50  50  65  65,redredredbluebluered,0  0  0  1  1  0,1,1
11710204,Button0Blue,0,"{""Source1"": 0.50, ""Source2"": 0.55, ""Source3"": 0.65}",40,6,6,6,5072.40000003576,red,1,6,1,js-scroll-button-response,162,1,2,80,50           55           50           55           65           55,blueredblueredredred,1  0  1  0  0  0,1,1
11710204,Button0Blue,0,"{""Source1"": 0.50, ""Source2"": 0.55, ""Source3"": 0.65}",40,6,6,6,7543.39999997616,red,1,6,1,js-scroll-button-response,165,1,3,81,50           65           55           50           55           65,redblueblueredbluered,0  1  1  0  1  0,1,1
11710204,Button0Blue,0,"{""Source1"": 0.50, ""Source2"": 0.55, ""Source3"": 0.65}",40,6,6,6,7614,red,1,6,1,js-scroll-button-response,167,1,3,82,65           55           65           55           50           55,redblueredblueredblue,0  1  0  1  0  1,1,1
11710204,Button0Blue,0,"{""Source1"": 0.50, ""Source2"": 0.55, ""Source3"": 0.65}",40,6,6,6,4286.39999997616,blue,1,6,0,js-scroll-button-response,169,0,3,83,50           50           50           55           55           55,blueredblueredredred,1  0  1  0  0  0,1,1
11710204,Button0Blue,0,"{""Source1"": 0.50, ""Source2"": 0.55, ""Source3"": 0.65}",40,6,6,6,4636.40000003576,blue,0,6,0,js-scroll-button-response,171,1,3,84,50           65           55           50           65           50,redredblueredblueblue,0  0  1  0  1  1,1,1
11710204,Button0Blue,0,"{""Source1"": 0.50, ""Source2"": 0.55, ""Source3"": 0.65}",40,6,6,6,3842.40000003576,blue,0,6,0,js-scroll-button-response,173,1,3,85,65  65  65  50  50  65,blueblueredblueblueblue,1  1  0  1  1  1,1,1
11710204,Button0Blue,0,"{""Source1"": 0.50, ""Source2"": 0.55, ""Source3"": 0.65}",40,6,6,6,4134.5,red,1,6,1,js-scroll-button-response,175,1,3,86,50           65           55           55           65           65,blueredblueredredred,1  0  1  0  0  0,1,1
11710204,Button0Blue,0,"{""Source1"": 0.50, ""Source2"": 0.55, ""Source3"": 0.65}",40,6,6,6,3934.70000004768,blue,0,6,0,js-scroll-button-response,177,1,3,87,50           55           55           50           55           65,blueblueblueblueredblue,1  1  1  1  0  1,1,1
11710204,Button0Blue,0,"{""Source1"": 0.50, ""Source2"": 0.55, ""Source3"": 0.65}",40,6,6,6,4429.30000001192,blue,1,6,0,js-scroll-button-response,179,0,3,88,50           65           50           65           55           50,blueblueredredredred,1  1  0  0  0  0,1,1
11710204,Button0Blue,0,"{""Source1"": 0.50, ""Source2"": 0.55, ""Source3"": 0.65}",40,6,6,6,4900,red,1,6,1,js-scroll-button-response,181,1,3,89,55           50           50           55           55           55,redredblueblueredred,0  0  1  1  0  0,1,1
11710204,Button0Blue,0,"{""Source1"": 0.50, ""Source2"": 0.55, ""Source3"": 0.65}",40,6,6,6,4204.89999997616,red,1,6,1,js-scroll-button-response,183,1,3,90,50  50  65  50  50  50,blueredredblueredred,1  0  0  1  0  0,1,1
11710204,Button0Blue,0,"{""Source1"": 0.50, ""Source2"": 0.55, ""Source3"": 0.65}",40,6,6,6,4458.30000001192,blue,0,6,0,js-scroll-button-response,185,1,3,91,55           55           55           55           50           55,blueblueblueblueblueblue,1  1  1  1  1  1,1,1
11710204,Button0Blue,0,"{""Source1"": 0.50, ""Source2"": 0.55, ""Source3"": 0.65}",40,6,6,6,4560.39999997616,blue,0,6,0,js-scroll-button-response,187,1,3,92,50           55           55           65           55           55,blueblueredbluebluered,1  1  0  1  1  0,1,1
11710204,Button0Blue,0,"{""Source1"": 0.50, ""Source2"": 0.55, ""Source3"": 0.65}",40,6,6,6,4026.89999997616,red,1,6,1,js-scroll-button-response,189,1,3,93,50  65  50  65  65  65,redredblueredredred,0  0  1  0  0  0,1,1
11710204,Button0Blue,0,"{""Source1"": 0.50, ""Source2"": 0.55, ""Source3"": 0.65}",40,6,6,6,4215.89999997616,blue,0,6,0,js-scroll-button-response,191,1,3,94,65  65  65  65  50  65,bluebluebluebluebluered,1  1  1  1  1  0,1,1
11710204,Button0Blue,0,"{""Source1"": 0.50, ""Source2"": 0.55, ""Source3"": 0.65}",40,6,6,6,4790.5,blue,1,6,0,js-scroll-button-response,193,0,3,95,55           55           65           50           50           50,redredblueredredred,0  0  1  0  0  0,1,1
11710204,Button0Blue,0,"{""Source1"": 0.50, ""Source2"": 0.55, ""Source3"": 0.65}",40,6,6,6,4150.39999997616,red,1,6,1,js-scroll-button-response,195,1,3,96,55           55           55           65           55           55,redredredredredred,0  0  0  0  0  0,1,1
11710204,Button0Blue,0,"{""Source1"": 0.50, ""Source2"": 0.55, ""Source3"": 0.65}",40,6,6,6,4552.60000002384,blue,1,6,0,js-scroll-button-response,197,0,3,97,50           65           55           65           55           65,redredbluebluebluered,0  0  1  1  1  0,1,1
11710204,Button0Blue,0,"{""Source1"": 0.50, ""Source2"": 0.55, ""Source3"": 0.65}",40,6,6,6,4925.29999995232,blue,1,6,0,js-scroll-button-response,199,0,3,98,55           50           55           65           50           55,blueblueredblueredred,1  1  0  1  0  0,1,1
11710204,Button0Blue,0,"{""Source1"": 0.50, ""Source2"": 0.55, ""Source3"": 0.65}",40,6,6,6,4846.30000001192,blue,1,6,0,js-scroll-button-response,201,0,3,99,65           50           55           50           55           55,blueblueredredredblue,1  1  0  0  0  1,1,1
11710204,Button0Blue,0,"{""Source1"": 0.50, ""Source2"": 0.55, ""Source3"": 0.65}",40,6,6,6,4197.19999998808,blue,0,6,0,js-scroll-button-response,203,1,3,100,55           65           65           65           50           50,blueredbluebluebluered,1  0  1  1  1  0,1,1
11710204,Button0Blue,0,"{""Source1"": 0.50, ""Source2"": 0.55, ""Source3"": 0.65}",40,6,6,6,4286.70000004768,red,0,6,1,js-scroll-button-response,205,0,3,101,65           55           50           55           55           50,blueredblueblueredred,1  0  1  1  0  0,1,1
11710204,Button0Blue,0,"{""Source1"": 0.50, ""Source2"": 0.55, ""Source3"": 0.65}",40,6,6,6,4680.09999996424,blue,0,6,0,js-scroll-button-response,207,1,3,102,50           50           50           50           55           50,redredredredblueblue,0  0  0  0  1  1,1,1
11710204,Button0Blue,0,"{""Source1"": 0.50, ""Source2"": 0.55, ""Source3"": 0.65}",40,6,6,6,6429.30000001192,blue,1,6,0,js-scroll-button-response,209,0,3,103,65           55           50           50           50           50,redredblueredblueblue,0  0  1  0  1  1,1,1
11710204,Button0Blue,0,"{""Source1"": 0.50, ""Source2"": 0.55, ""Source3"": 0.65}",40,6,6,6,4562.60000002384,blue,0,6,0,js-scroll-button-response,211,1,3,104,65           55           55           55           65           55,redredbluebluebluered,0  0  1  1  1  0,1,1
11710204,Button0Blue,0,"{""Source1"": 0.50, ""Source2"": 0.55, ""Source3"": 0.65}",40,6,6,6,4519,blue,0,6,0,js-scroll-button-response,213,1,3,105,65           65           55           65           50           50,blueblueblueredredred,1  1  1  0  0  0,1,1
11710204,Button0Blue,0,"{""Source1"": 0.50, ""Source2"": 0.55, ""Source3"": 0.65}",40,6,6,6,4850.30000001192,blue,0,6,0,js-scroll-button-response,215,1,3,106,65           50           55           50           55           50,blueredblueredblueblue,1  0  1  0  1  1,1,1
11710204,Button0Blue,0,"{""Source1"": 0.50, ""Source2"": 0.55, ""Source3"": 0.65}",40,6,6,6,5038.30000001192,blue,1,6,0,js-scroll-button-response,217,0,3,107,50           65           65           55           65           50,blueredredblueblueblue,1  0  0  1  1  1,1,1
11710204,Button0Blue,0,"{""Source1"": 0.50, ""Source2"": 0.55, ""Source3"": 0.65}",40,6,6,6,5026.30000001192,blue,0,6,0,js-scroll-button-response,219,1,3,108,50           50           55           55           65           50,redredredredblueblue,0  0  0  0  1  1,1,1
11710204,Button0Blue,0,"{""Source1"": 0.50, ""Source2"": 0.55, ""Source3"": 0.65}",40,6,6,6,5144.30000001192,blue,0,6,0,js-scroll-button-response,221,1,3,109,50  65  65  50  65  65,blueblueblueblueredblue,1  1  1  1  0  1,1,1
11710204,Button0Blue,0,"{""Source1"": 0.50, ""Source2"": 0.55, ""Source3"": 0.65}",40,6,6,6,4218.39999997616,red,0,6,1,js-scroll-button-response,223,0,3,110,50  50  50  65  50  50,redredblueblueredblue,0  0  1  1  0  1,1,1
11710204,Button0Blue,0,"{""Source1"": 0.50, ""Source2"": 0.55, ""Source3"": 0.65}",40,6,6,6,4397.10000002384,blue,0,6,0,js-scroll-button-response,225,1,3,111,55           50           55           55           55           55,blueredblueredbluered,1  0  1  0  1  0,1,1
11710204,Button0Blue,0,"{""Source1"": 0.50, ""Source2"": 0.55, ""Source3"": 0.65}",40,6,6,6,4510.19999998808,blue,0,6,0,js-scroll-button-response,227,1,3,112,55           65           65           65           50           55,redredblueblueredred,0  0  1  1  0  0,1,1
11710204,Button0Blue,0,"{""Source1"": 0.50, ""Source2"": 0.55, ""Source3"": 0.65}",40,6,6,6,4756.69999998808,blue,0,6,0,js-scroll-button-response,229,1,3,113,65           65           55           65           65           50,redblueblueblueredblue,0  1  1  1  0  1,1,1
11710204,Button0Blue,0,"{""Source1"": 0.50, ""Source2"": 0.55, ""Source3"": 0.65}",40,6,6,6,5592.60000002384,red,1,6,1,js-scroll-button-response,231,1,3,114,55           65           55           50           65           50,blueredblueblueredred,1  0  1  1  0  0,1,1
11710204,Button0Blue,0,"{""Source1"": 0.50, ""Source2"": 0.55, ""Source3"": 0.65}",40,6,6,6,4969,red,1,6,1,js-scroll-button-response,233,1,3,115,65           55           55           50           55           55,redblueredredblueblue,0  1  0  0  1  1,1,1
11710204,Button0Blue,0,"{""Source1"": 0.50, ""Source2"": 0.55, ""Source3"": 0.65}",40,6,6,6,4655.89999997616,blue,1,6,0,js-scroll-button-response,235,0,3,116,55           50           50           55           55           55,redredbluebluebluered,0  0  1  1  1  0,1,1
11710204,Button0Blue,0,"{""Source1"": 0.50, ""Source2"": 0.55, ""Source3"": 0.65}",40,6,6,6,4074.60000002384,blue,1,6,0,js-scroll-button-response,237,0,3,117,55           50           50           55           65           65,blueblueredblueredred,1  1  0  1  0  0,1,1
11710204,Button0Blue,0,"{""Source1"": 0.50, ""Source2"": 0.55, ""Source3"": 0.65}",40,6,6,6,4758.89999997616,red,1,6,1,js-scroll-button-response,239,1,3,118,65           55           55           65           50           65,blueblueblueredredred,1  1  1  0  0  0,1,1
11710204,Button0Blue,0,"{""Source1"": 0.50, ""Source2"": 0.55, ""Source3"": 0.65}",40,6,6,6,5172.69999998808,red,0,6,1,js-scroll-button-response,241,0,3,119,65           65           55           50           65           65,blueredredblueblueblue,1  0  0  1  1  1,1,1
11710204,Button0Blue,0,"{""Source1"": 0.50, ""Source2"": 0.55, ""Source3"": 0.65}",40,6,6,6,3904.59999996424,red,1,6,1,js-scroll-button-response,243,1,3,120,65           65           55           65           55           50,redredblueblueblueblue,0  0  1  1  1  1,1,1
11710204,Button0Blue,0,"{""Source1"": 0.50, ""Source2"": 0.55, ""Source3"": 0.65}",40,6,6,6,5073.70000004768,red,1,6,1,js-scroll-button-response,246,1,4,121,50           50           50           55           50           50,redblueredredblueblue,0  1  0  0  1  1,1,1
11710204,Button0Blue,0,"{""Source1"": 0.50, ""Source2"": 0.55, ""Source3"": 0.65}",40,6,6,6,3104.29999995232,red,0,6,1,js-scroll-button-response,248,0,4,122,50           50           65           50           55           50,redredblueblueblueblue,0  0  1  1  1  1,1,1
11710204,Button0Blue,0,"{""Source1"": 0.50, ""Source2"": 0.55, ""Source3"": 0.65}",40,6,6,6,5251.29999995232,blue,0,6,0,js-scroll-button-response,250,1,4,123,65           65           65           55           50           50,redbluebluebluebluered,0  1  1  1  1  0,1,1
11710204,Button0Blue,0,"{""Source1"": 0.50, ""Source2"": 0.55, ""Source3"": 0.65}",40,6,6,6,3521.19999998808,red,1,6,1,js-scroll-button-response,252,1,4,124,55           50           65           55           55           65,redblueredbluebluered,0  1  0  1  1  0,1,1
11710204,Button0Blue,0,"{""Source1"": 0.50, ""Source2"": 0.55, ""Source3"": 0.65}",40,6,6,6,3100.10000002384,blue,0,6,0,js-scroll-button-response,254,1,4,125,50           65           55           55           65           55,redblueblueblueblueblue,0  1  1  1  1  1,1,1
11710204,Button0Blue,0,"{""Source1"": 0.50, ""Source2"": 0.55, ""Source3"": 0.65}",40,6,6,6,3693.80000001192,blue,0,6,0,js-scroll-button-response,256,1,4,126,65  65  65  65  50  50,redredblueblueblueblue,0  0  1  1  1  1,1,1
11710204,Button0Blue,0,"{""Source1"": 0.50, ""Source2"": 0.55, ""Source3"": 0.65}",40,6,6,6,3821.30000001192,blue,0,6,0,js-scroll-button-response,258,1,4,127,65           55           65           55           50           50,blueredblueblueredblue,1  0  1  1  0  1,1,1
11710204,Button0Blue,0,"{""Source1"": 0.50, ""Source2"": 0.55, ""Source3"": 0.65}",40,6,6,6,4699.89999997616,red,1,6,1,js-scroll-button-response,260,1,4,128,65           55           55           50           65           65,blueredredredbluered,1  0  0  0  1  0,1,1
11710204,Button0Blue,0,"{""Source1"": 0.50, ""Source2"": 0.55, ""Source3"": 0.65}",40,6,6,6,3760.10000002384,blue,1,6,0,js-scroll-button-response,262,0,4,129,65           50           65           55           50           55,redredblueredredblue,0  0  1  0  0  1,1,1
11710204,Button0Blue,0,"{""Source1"": 0.50, ""Source2"": 0.55, ""Source3"": 0.65}",40,6,6,6,4175.80000001192,red,1,6,1,js-scroll-button-response,264,1,4,130,65           65           50           50           50           55,blueredredbluebluered,1  0  0  1  1  0,1,1
11710204,Button0Blue,0,"{""Source1"": 0.50, ""Source2"": 0.55, ""Source3"": 0.65}",40,6,6,6,4454.19999998808,blue,0,6,0,js-scroll-button-response,266,1,4,131,50           55           50           50           50           50,blueblueblueredbluered,1  1  1  0  1  0,1,1
11710204,Button0Blue,0,"{""Source1"": 0.50, ""Source2"": 0.55, ""Source3"": 0.65}",40,6,6,6,3977.80000001192,blue,0,6,0,js-scroll-button-response,268,1,4,132,55           65           65           65           50           50,redblueblueredbluered,0  1  1  0  1  0,1,1
11710204,Button0Blue,0,"{""Source1"": 0.50, ""Source2"": 0.55, ""Source3"": 0.65}",40,6,6,6,3291.89999997616,blue,0,6,0,js-scroll-button-response,270,1,4,133,55           50           55           55           50           65,blueblueblueredblueblue,1  1  1  0  1  1,1,1
11710204,Button0Blue,0,"{""Source1"": 0.50, ""Source2"": 0.55, ""Source3"": 0.65}",40,6,6,6,3498.30000001192,blue,0,6,0,js-scroll-button-response,272,1,4,134,55           65           65           50           65           55,blueblueblueredbluered,1  1  1  0  1  0,1,1
11710204,Button0Blue,0,"{""Source1"": 0.50, ""Source2"": 0.55, ""Source3"": 0.65}",40,6,6,6,3352.29999995232,blue,1,6,0,js-scroll-button-response,274,0,4,135,55           50           65           50           55           55,blueredredblueredblue,1  0  0  1  0  1,1,1
11710204,Button0Blue,0,"{""Source1"": 0.50, ""Source2"": 0.55, ""Source3"": 0.65}",40,6,6,6,3656.19999998808,red,1,6,1,js-scroll-button-response,276,1,4,136,65           65           50           55           55           55,redblueredredredred,0  1  0  0  0  0,1,1
11710204,Button0Blue,0,"{""Source1"": 0.50, ""Source2"": 0.55, ""Source3"": 0.65}",40,6,6,6,4043.80000001192,blue,0,6,0,js-scroll-button-response,278,1,4,137,55           50           65           55           65           50,redredblueblueblueblue,0  0  1  1  1  1,1,1
11710204,Button0Blue,0,"{""Source1"": 0.50, ""Source2"": 0.55, ""Source3"": 0.65}",40,6,6,6,3716.30000001192,blue,0,6,0,js-scroll-button-response,280,1,4,138,50           50           65           55           65           55,blueblueblueblueredblue,1  1  1  1  0  1,1,1
11710204,Button0Blue,0,"{""Source1"": 0.50, ""Source2"": 0.55, ""Source3"": 0.65}",40,6,6,6,3255,red,0,6,1,js-scroll-button-response,282,0,4,139,55           65           50           50           55           55,redblueredbluebluered,0  1  0  1  1  0,1,1
11710204,Button0Blue,0,"{""Source1"": 0.50, ""Source2"": 0.55, ""Source3"": 0.65}",40,6,6,6,3384.40000003576,blue,0,6,0,js-scroll-button-response,284,1,4,140,65           55           50           50           65           55,redblueblueblueblueblue,0  1  1  1  1  1,1,1
11710204,Button0Blue,0,"{""Source1"": 0.50, ""Source2"": 0.55, ""Source3"": 0.65}",40,6,6,6,3380.10000002384,blue,1,6,0,js-scroll-button-response,286,0,4,141,50           55           55           50           65           65,redredredredredblue,0  0  0  0  0  1,1,1
11710204,Button0Blue,0,"{""Source1"": 0.50, ""Source2"": 0.55, ""Source3"": 0.65}",40,6,6,6,5811.30000001192,red,1,6,1,js-scroll-button-response,288,1,4,142,55           50           55           55           65           65,redredredblueredblue,0  0  0  1  0  1,1,1
11710204,Button0Blue,0,"{""Source1"": 0.50, ""Source2"": 0.55, ""Source3"": 0.65}",40,6,6,6,4082.39999997616,red,1,6,1,js-scroll-button-response,290,1,4,143,50           50           65           55           65           65,blueredredredredred,1  0  0  0  0  0,1,1
