ParticipantPrivateID,randomiser_475f,ResponseButtonOrder,Sources,Trials_perBlock_,Blocks,MinimumSamples,MaximumSamples,RT,Stimulus,Response,NoOfStimuli,CorrectResponse,TrialType,TrialIndex,Accuracy,Block,TrialNumber,Sample_Reliability,Sample_Color,Sample_NumColor,Prior_Belief,Awareness
11710207,Button0Red,1,"{""Source1"": 0.50, ""Source2"": 0.55, ""Source3"": 0.65}",40,6,6,6,11924.2000000002,red,0,6,0,js-scroll-button-response,3,1,1,1,55           55           55           65           50           50,redredredredredblue,1  1  1  1  1  0,2,0
11710207,Button0Red,1,"{""Source1"": 0.50, ""Source2"": 0.55, ""Source3"": 0.65}",40,6,6,6,7036,red,0,6,0,js-scroll-button-response,5,1,1,2,55           50           50           50           50           65,blueredblueblueredred,0  1  0  0  1  1,2,0
11710207,Button0Red,1,"{""Source1"": 0.50, ""Source2"": 0.55, ""Source3"": 0.65}",40,6,6,6,6162.70000000019,red,0,6,0,js-scroll-button-response,7,1,1,3,55           55           50           55           50           55,redredredredblueblue,1  1  1  1  0  0,2,0
11710207,Button0Red,1,"{""Source1"": 0.50, ""Source2"": 0.55, ""Source3"": 0.65}",40,6,6,6,5942.59999999963,red,0,6,0,js-scroll-button-response,9,1,1,4,50  65  65  50  65  65,redblueblueredredred,1  0  0  1  1  1,2,0
11710207,Button0Red,1,"{""Source1"": 0.50, ""Source2"": 0.55, ""Source3"": 0.65}",40,6,6,6,5650.79999999981,red,0,6,0,js-scroll-button-response,11,1,1,5,55           55           65           65           65           50,redredblueblueredred,1  1  0  0  1  1,2,0
11710207,Button0Red,1,"{""Source1"": 0.50, ""Source2"": 0.55, ""Source3"": 0.65}",40,6,6,6,61884.9000000004,red,1,6,0,js-scroll-button-response,13,0,1,6,65           55           65           65           50           50,blueblueblueredblueblue,0  0  0  1  0  0,2,0
11710207,Button0Red,1,"{""Source1"": 0.50, ""Source2"": 0.55, ""Source3"": 0.65}",40,6,6,6,10764.7000000002,blue,1,6,1,js-scroll-button-response,15,1,1,7,50           65           55           50           50           50,redblueredblueredred,1  0  1  0  1  1,2,0
11710207,Button0Red,1,"{""Source1"": 0.50, ""Source2"": 0.55, ""Source3"": 0.65}",40,6,6,6,123939.600000001,blue,1,6,1,js-scroll-button-response,17,1,1,8,55           55           50           65           65           50,blueredblueblueredblue,0  1  0  0  1  0,2,0
11710207,Button0Red,1,"{""Source1"": 0.50, ""Source2"": 0.55, ""Source3"": 0.65}",40,6,6,6,4745.5,red,1,6,0,js-scroll-button-response,19,0,1,9,50           50           55           55           65           65,blueblueblueredblueblue,0  0  0  1  0  0,2,0
11710207,Button0Red,1,"{""Source1"": 0.50, ""Source2"": 0.55, ""Source3"": 0.65}",40,6,6,6,5194,blue,1,6,1,js-scroll-button-response,21,1,1,10,50           55           55           55           55           55,redblueredbluebluered,1  0  1  0  0  1,2,0
11710207,Button0Red,1,"{""Source1"": 0.50, ""Source2"": 0.55, ""Source3"": 0.65}",40,6,6,6,6333.80000000075,red,0,6,0,js-scroll-button-response,23,1,1,11,65           65           50           55           50           55,blueredredredbluered,0  1  1  1  0  1,2,0
11710207,Button0Red,1,"{""Source1"": 0.50, ""Source2"": 0.55, ""Source3"": 0.65}",40,6,6,6,7011.79999999981,red,1,6,0,js-scroll-button-response,25,0,1,12,50           50           55           50           50           65,redredblueredblueblue,1  1  0  1  0  0,2,0
11710207,Button0Red,1,"{""Source1"": 0.50, ""Source2"": 0.55, ""Source3"": 0.65}",40,6,6,6,5342.79999999981,red,1,6,0,js-scroll-button-response,27,0,1,13,55           50           55           50           50           55,blueblueblueredblueblue,0  0  0  1  0  0,2,0
11710207,Button0Red,1,"{""Source1"": 0.50, ""Source2"": 0.55, ""Source3"": 0.65}",40,6,6,6,4562.59999999963,blue,0,6,1,js-scroll-button-response,29,0,1,14,50           55           50           65           50           65,redredredbluebluered,1  1  1  0  0  1,2,0
11710207,Button0Red,1,"{""Source1"": 0.50, ""Source2"": 0.55, ""Source3"": 0.65}",40,6,6,6,4886.89999999944,blue,1,6,1,js-scroll-button-response,31,1,1,15,55           55           55           55           65           65,redredblueredredblue,1  1  0  1  1  0,2,0
11710207,Button0Red,1,"{""Source1"": 0.50, ""Source2"": 0.55, ""Source3"": 0.65}",40,6,6,6,5035,blue,0,6,1,js-scroll-button-response,33,0,1,16,65           50           65           50           50           55,blueredblueredredred,0  1  0  1  1  1,2,0
11710207,Button0Red,1,"{""Source1"": 0.50, ""Source2"": 0.55, ""Source3"": 0.65}",40,6,6,6,4470.20000000019,red,0,6,0,js-scroll-button-response,35,1,1,17,55           55           55           50           65           65,blueredredblueredred,0  1  1  0  1  1,2,0
11710207,Button0Red,1,"{""Source1"": 0.50, ""Source2"": 0.55, ""Source3"": 0.65}",40,6,6,6,4685.89999999944,red,0,6,0,js-scroll-button-response,37,1,1,18,65           65           65           50           55           65,redredblueredredred,1  1  0  1  1  1,2,0
11710207,Button0Red,1,"{""Source1"": 0.50, ""Source2"": 0.55, ""Source3"": 0.65}",40,6,6,6,4928.39999999944,blue,0,6,1,js-scroll-button-response,39,0,1,19,55           50           65           55           55           50,redblueblueredredblue,1  0  0  1  1  0,2,0
11710207,Button0Red,1,"{""Source1"": 0.50, ""Source2"": 0.55, ""Source3"": 0.65}",40,6,6,6,5081.90000000037,red,0,6,0,js-scroll-button-response,41,1,1,20,55           55           55           50           50           55,blueblueblueredredred,0  0  0  1  1  1,2,0
11710207,Button0Red,1,"{""Source1"": 0.50, ""Source2"": 0.55, ""Source3"": 0.65}",40,6,6,6,4541.90000000037,blue,1,6,1,js-scroll-button-response,43,1,1,21,55           50           65           50           50           55,blueredbluebluebluered,0  1  0  0  0  1,2,0
11710207,Button0Red,1,"{""Source1"": 0.50, ""Source2"": 0.55, ""Source3"": 0.65}",40,6,6,6,4365.90000000037,red,0,6,0,js-scroll-button-response,45,1,1,22,50  65  50  50  65  65,blueredblueblueredblue,0  1  0  0  1  0,2,0
11710207,Button0Red,1,"{""Source1"": 0.50, ""Source2"": 0.55, ""Source3"": 0.65}",40,6,6,6,4769,blue,1,6,1,js-scroll-button-response,47,1,1,23,65  50  65  50  65  65,blueblueblueblueredblue,0  0  0  0  1  0,2,0
11710207,Button0Red,1,"{""Source1"": 0.50, ""Source2"": 0.55, ""Source3"": 0.65}",40,6,6,6,13824.5,red,1,6,0,js-scroll-button-response,49,0,1,24,65           55           50           50           50           50,redredblueredbluered,1  1  0  1  0  1,2,0
11710207,Button0Red,1,"{""Source1"": 0.50, ""Source2"": 0.55, ""Source3"": 0.65}",40,6,6,6,4478.80000000075,red,0,6,0,js-scroll-button-response,51,1,1,25,65           50           55           50           65           65,redredblueredredred,1  1  0  1  1  1,2,0
11710207,Button0Red,1,"{""Source1"": 0.50, ""Source2"": 0.55, ""Source3"": 0.65}",40,6,6,6,4742.80000000075,red,0,6,0,js-scroll-button-response,53,1,1,26,55           50           50           65           55           50,redredredredblueblue,1  1  1  1  0  0,2,0
11710207,Button0Red,1,"{""Source1"": 0.50, ""Source2"": 0.55, ""Source3"": 0.65}",40,6,6,6,4386.40000000037,red,0,6,0,js-scroll-button-response,55,1,1,27,55           50           65           50           50           50,redredredblueredblue,1  1  1  0  1  0,2,0
11710207,Button0Red,1,"{""Source1"": 0.50, ""Source2"": 0.55, ""Source3"": 0.65}",40,6,6,6,4995.30000000075,red,0,6,0,js-scroll-button-response,57,1,1,28,55           65           65           55           50           65,blueredredredbluered,0  1  1  1  0  1,2,0
11710207,Button0Red,1,"{""Source1"": 0.50, ""Source2"": 0.55, ""Source3"": 0.65}",40,6,6,6,4404.60000000056,red,0,6,0,js-scroll-button-response,59,1,1,29,50  50  50  65  65  50,redbluebluebluebluered,1  0  0  0  0  1,2,0
11710207,Button0Red,1,"{""Source1"": 0.50, ""Source2"": 0.55, ""Source3"": 0.65}",40,6,6,6,4550.79999999981,blue,0,6,1,js-scroll-button-response,61,0,1,30,50           55           65           55           65           55,blueblueredblueredred,0  0  1  0  1  1,2,0
11710207,Button0Red,1,"{""Source1"": 0.50, ""Source2"": 0.55, ""Source3"": 0.65}",40,6,6,6,4386.10000000056,blue,1,6,1,js-scroll-button-response,63,1,1,31,65           65           50           55           55           50,bluebluebluebluebluered,0  0  0  0  0  1,2,0
11710207,Button0Red,1,"{""Source1"": 0.50, ""Source2"": 0.55, ""Source3"": 0.65}",40,6,6,6,4859.79999999981,blue,1,6,1,js-scroll-button-response,65,1,1,32,50           65           50           50           55           55,redblueredredbluered,1  0  1  1  0  1,2,0
11710207,Button0Red,1,"{""Source1"": 0.50, ""Source2"": 0.55, ""Source3"": 0.65}",40,6,6,6,5980.80000000075,red,1,6,0,js-scroll-button-response,67,0,1,33,50           65           55           65           50           50,redredredredblueblue,1  1  1  1  0  0,2,0
11710207,Button0Red,1,"{""Source1"": 0.50, ""Source2"": 0.55, ""Source3"": 0.65}",40,6,6,6,4595.5,red,0,6,0,js-scroll-button-response,69,1,1,34,55           65           50           65           55           65,redblueredredbluered,1  0  1  1  0  1,2,0
11710207,Button0Red,1,"{""Source1"": 0.50, ""Source2"": 0.55, ""Source3"": 0.65}",40,6,6,6,4077.89999999944,blue,1,6,1,js-scroll-button-response,71,1,1,35,50           50           65           55           65           65,blueredblueblueblueblue,0  1  0  0  0  0,2,0
11710207,Button0Red,1,"{""Source1"": 0.50, ""Source2"": 0.55, ""Source3"": 0.65}",40,6,6,6,4383.60000000056,blue,1,6,1,js-scroll-button-response,73,1,1,36,55           50           50           50           50           50,bluebluebluebluebluered,0  0  0  0  0  1,2,0
11710207,Button0Red,1,"{""Source1"": 0.50, ""Source2"": 0.55, ""Source3"": 0.65}",40,6,6,6,4291,red,1,6,0,js-scroll-button-response,75,0,1,37,65           50           65           55           50           55,redbluebluebluebluered,1  0  0  0  0  1,2,0
11710207,Button0Red,1,"{""Source1"": 0.50, ""Source2"": 0.55, ""Source3"": 0.65}",40,6,6,6,4192.70000000019,red,0,6,0,js-scroll-button-response,77,1,1,38,65  50  65  50  65  50,redredredbluebluered,1  1  1  0  0  1,2,0
11710207,Button0Red,1,"{""Source1"": 0.50, ""Source2"": 0.55, ""Source3"": 0.65}",40,6,6,6,5446.79999999981,red,1,6,0,js-scroll-button-response,79,0,1,39,65           65           55           50           65           65,blueredblueredblueblue,0  1  0  1  0  0,2,0
11710207,Button0Red,1,"{""Source1"": 0.50, ""Source2"": 0.55, ""Source3"": 0.65}",40,6,6,6,5688.70000000019,red,0,6,0,js-scroll-button-response,81,1,1,40,65           55           55           55           65           65,blueredredredredred,0  1  1  1  1  1,2,0
11710207,Button0Red,1,"{""Source1"": 0.50, ""Source2"": 0.55, ""Source3"": 0.65}",40,6,6,6,4344.70000000019,red,1,6,0,js-scroll-button-response,84,0,2,41,55           65           65           55           55           55,redredblueblueblueblue,1  1  0  0  0  0,2,0
11710207,Button0Red,1,"{""Source1"": 0.50, ""Source2"": 0.55, ""Source3"": 0.65}",40,6,6,6,4178,blue,1,6,1,js-scroll-button-response,86,1,2,42,55           50           50           55           55           65,blueredblueredblueblue,0  1  0  1  0  0,2,0
11710207,Button0Red,1,"{""Source1"": 0.50, ""Source2"": 0.55, ""Source3"": 0.65}",40,6,6,6,4671,blue,1,6,1,js-scroll-button-response,88,1,2,43,65           50           55           55           50           50,redblueblueredblueblue,1  0  0  1  0  0,2,0
11710207,Button0Red,1,"{""Source1"": 0.50, ""Source2"": 0.55, ""Source3"": 0.65}",40,6,6,6,6277.80000000075,red,0,6,0,js-scroll-button-response,90,1,2,44,55           65           65           55           65           55,blueredredredbluered,0  1  1  1  0  1,2,0
11710207,Button0Red,1,"{""Source1"": 0.50, ""Source2"": 0.55, ""Source3"": 0.65}",40,6,6,6,8274.59999999963,red,1,6,0,js-scroll-button-response,92,0,2,45,55           50           50           50           55           50,blueredredblueblueblue,0  1  1  0  0  0,2,0
11710207,Button0Red,1,"{""Source1"": 0.50, ""Source2"": 0.55, ""Source3"": 0.65}",40,6,6,6,5052.80000000075,red,0,6,0,js-scroll-button-response,94,1,2,46,50           55           55           65           65           55,redredblueblueredred,1  1  0  0  1  1,2,0
11710207,Button0Red,1,"{""Source1"": 0.50, ""Source2"": 0.55, ""Source3"": 0.65}",40,6,6,6,4854.90000000037,blue,1,6,1,js-scroll-button-response,96,1,2,47,55           50           55           55           55           65,blueblueredredblueblue,0  0  1  1  0  0,2,0
11710207,Button0Red,1,"{""Source1"": 0.50, ""Source2"": 0.55, ""Source3"": 0.65}",40,6,6,6,6650.10000000056,red,0,6,0,js-scroll-button-response,98,1,2,48,55           55           65           65           65           55,redredredredredblue,1  1  1  1  1  0,2,0
11710207,Button0Red,1,"{""Source1"": 0.50, ""Source2"": 0.55, ""Source3"": 0.65}",40,6,6,6,5651.90000000037,red,1,6,0,js-scroll-button-response,100,0,2,49,65           50           65           65           55           55,redredredblueblueblue,1  1  1  0  0  0,2,0
11710207,Button0Red,1,"{""Source1"": 0.50, ""Source2"": 0.55, ""Source3"": 0.65}",40,6,6,6,7044,blue,1,6,1,js-scroll-button-response,102,1,2,50,55           65           65           50           65           55,redblueblueredblueblue,1  0  0  1  0  0,2,0
11710207,Button0Red,1,"{""Source1"": 0.50, ""Source2"": 0.55, ""Source3"": 0.65}",40,6,6,6,4792.90000000037,red,0,6,0,js-scroll-button-response,104,1,2,51,55           55           50           65           50           50,redblueblueredredred,1  0  0  1  1  1,2,0
11710207,Button0Red,1,"{""Source1"": 0.50, ""Source2"": 0.55, ""Source3"": 0.65}",40,6,6,6,10648.8000000007,red,0,6,0,js-scroll-button-response,106,1,2,52,65  50  50  65  50  65,blueblueredredbluered,0  0  1  1  0  1,2,0
11710207,Button0Red,1,"{""Source1"": 0.50, ""Source2"": 0.55, ""Source3"": 0.65}",40,6,6,6,4770.70000000019,blue,1,6,1,js-scroll-button-response,108,1,2,53,65           65           55           65           55           55,blueblueblueredbluered,0  0  0  1  0  1,2,0
11710207,Button0Red,1,"{""Source1"": 0.50, ""Source2"": 0.55, ""Source3"": 0.65}",40,6,6,6,4512.70000000019,red,1,6,0,js-scroll-button-response,110,0,2,54,50           50           65           55           55           50,blueblueredredblueblue,0  0  1  1  0  0,2,0
11710207,Button0Red,1,"{""Source1"": 0.50, ""Source2"": 0.55, ""Source3"": 0.65}",40,6,6,6,4515.40000000037,red,0,6,0,js-scroll-button-response,112,1,2,55,55           65           65           55           65           50,redredredblueredblue,1  1  1  0  1  0,2,0
11710207,Button0Red,1,"{""Source1"": 0.50, ""Source2"": 0.55, ""Source3"": 0.65}",40,6,6,6,8449.89999999944,red,0,6,0,js-scroll-button-response,114,1,2,56,50           50           55           65           65           65,redblueblueredredred,1  0  0  1  1  1,2,0
11710207,Button0Red,1,"{""Source1"": 0.50, ""Source2"": 0.55, ""Source3"": 0.65}",40,6,6,6,4663.89999999944,blue,0,6,1,js-scroll-button-response,116,0,2,57,50           55           50           65           50           55,blueredblueredredblue,0  1  0  1  1  0,2,0
11710207,Button0Red,1,"{""Source1"": 0.50, ""Source2"": 0.55, ""Source3"": 0.65}",40,6,6,6,4993.69999999925,blue,0,6,1,js-scroll-button-response,118,0,2,58,65           50           65           50           55           65,redblueblueblueredred,1  0  0  0  1  1,2,0
11710207,Button0Red,1,"{""Source1"": 0.50, ""Source2"": 0.55, ""Source3"": 0.65}",40,6,6,6,7596.70000000019,red,0,6,0,js-scroll-button-response,120,1,2,59,50  65  50  50  65  65,redredredredredred,1  1  1  1  1  1,2,0
11710207,Button0Red,1,"{""Source1"": 0.50, ""Source2"": 0.55, ""Source3"": 0.65}",40,6,6,6,5232.60000000056,red,0,6,0,js-scroll-button-response,122,1,2,60,50           50           65           65           55           50,blueredredblueredred,0  1  1  0  1  1,2,0
11710207,Button0Red,1,"{""Source1"": 0.50, ""Source2"": 0.55, ""Source3"": 0.65}",40,6,6,6,5774.79999999981,red,1,6,0,js-scroll-button-response,124,0,2,61,50           65           65           50           55           55,redredblueredbluered,1  1  0  1  0  1,2,0
11710207,Button0Red,1,"{""Source1"": 0.50, ""Source2"": 0.55, ""Source3"": 0.65}",40,6,6,6,8880.70000000019,red,1,6,0,js-scroll-button-response,126,0,2,62,65           65           55           50           65           55,blueblueblueblueblueblue,0  0  0  0  0  0,2,0
11710207,Button0Red,1,"{""Source1"": 0.50, ""Source2"": 0.55, ""Source3"": 0.65}",40,6,6,6,5387,red,1,6,0,js-scroll-button-response,128,0,2,63,65           55           50           65           50           65,blueblueblueredblueblue,0  0  0  1  0  0,2,0
11710207,Button0Red,1,"{""Source1"": 0.50, ""Source2"": 0.55, ""Source3"": 0.65}",40,6,6,6,4389.80000000075,red,0,6,0,js-scroll-button-response,130,1,2,64,55           65           65           55           65           55,blueblueredredredblue,0  0  1  1  1  0,2,0
11710207,Button0Red,1,"{""Source1"": 0.50, ""Source2"": 0.55, ""Source3"": 0.65}",40,6,6,6,5126.69999999925,blue,1,6,1,js-scroll-button-response,132,1,2,65,50           50           65           55           50           65,redredbluebluebluered,1  1  0  0  0  1,2,0
11710207,Button0Red,1,"{""Source1"": 0.50, ""Source2"": 0.55, ""Source3"": 0.65}",40,6,6,6,5755.89999999944,blue,0,6,1,js-scroll-button-response,134,0,2,66,50           65           50           55           65           55,redredredredblueblue,1  1  1  1  0  0,2,0
11710207,Button0Red,1,"{""Source1"": 0.50, ""Source2"": 0.55, ""Source3"": 0.65}",40,6,6,6,6673.69999999925,red,0,6,0,js-scroll-button-response,136,1,2,67,55           65           50           65           65           55,redblueblueredbluered,1  0  0  1  0  1,2,0
11710207,Button0Red,1,"{""Source1"": 0.50, ""Source2"": 0.55, ""Source3"": 0.65}",40,6,6,6,7592.40000000037,red,0,6,0,js-scroll-button-response,138,1,2,68,55           55           50           50           65           55,redredredredredred,1  1  1  1  1  1,2,0
11710207,Button0Red,1,"{""Source1"": 0.50, ""Source2"": 0.55, ""Source3"": 0.65}",40,6,6,6,5537.30000000075,blue,1,6,1,js-scroll-button-response,140,1,2,69,50           65           50           50           55           55,bluebluebluebluebluered,0  0  0  0  0  1,2,0
11710207,Button0Red,1,"{""Source1"": 0.50, ""Source2"": 0.55, ""Source3"": 0.65}",40,6,6,6,24877.5,red,1,6,0,js-scroll-button-response,142,0,2,70,55           55           50           50           50           50,redredblueblueredred,1  1  0  0  1  1,2,0
11710207,Button0Red,1,"{""Source1"": 0.50, ""Source2"": 0.55, ""Source3"": 0.65}",40,6,6,6,5031.79999999981,red,1,6,0,js-scroll-button-response,144,0,2,71,50           50           65           65           50           55,blueblueredblueblueblue,0  0  1  0  0  0,2,0
11710207,Button0Red,1,"{""Source1"": 0.50, ""Source2"": 0.55, ""Source3"": 0.65}",40,6,6,6,4326,blue,0,6,1,js-scroll-button-response,146,0,2,72,65           50           50           65           65           55,blueblueredredredblue,0  0  1  1  1  0,2,0
11710207,Button0Red,1,"{""Source1"": 0.50, ""Source2"": 0.55, ""Source3"": 0.65}",40,6,6,6,4921,red,0,6,0,js-scroll-button-response,148,1,2,73,50           55           65           50           50           50,blueredredblueredred,0  1  1  0  1  1,2,0
11710207,Button0Red,1,"{""Source1"": 0.50, ""Source2"": 0.55, ""Source3"": 0.65}",40,6,6,6,6075.10000000056,blue,1,6,1,js-scroll-button-response,150,1,2,74,65           55           50           50           50           65,blueredblueredblueblue,0  1  0  1  0  0,2,0
11710207,Button0Red,1,"{""Source1"": 0.50, ""Source2"": 0.55, ""Source3"": 0.65}",40,6,6,6,5379,red,0,6,0,js-scroll-button-response,152,1,2,75,50  65  65  50  50  65,redredredredredblue,1  1  1  1  1  0,2,0
11710207,Button0Red,1,"{""Source1"": 0.50, ""Source2"": 0.55, ""Source3"": 0.65}",40,6,6,6,4629.69999999925,blue,1,6,1,js-scroll-button-response,154,1,2,76,65           55           50           50           65           50,blueblueblueblueredblue,0  0  0  0  1  0,2,0
11710207,Button0Red,1,"{""Source1"": 0.50, ""Source2"": 0.55, ""Source3"": 0.65}",40,6,6,6,4503.40000000037,blue,1,6,1,js-scroll-button-response,156,1,2,77,55           65           55           65           65           55,blueblueredblueblueblue,0  0  1  0  0  0,2,0
11710207,Button0Red,1,"{""Source1"": 0.50, ""Source2"": 0.55, ""Source3"": 0.65}",40,6,6,6,4065.79999999981,red,1,6,0,js-scroll-button-response,158,0,2,78,65           50           55           55           50           50,redbluebluebluebluered,1  0  0  0  0  1,2,0
11710207,Button0Red,1,"{""Source1"": 0.50, ""Source2"": 0.55, ""Source3"": 0.65}",40,6,6,6,3954.5,red,1,6,0,js-scroll-button-response,160,0,2,79,55           65           55           50           65           65,redbluebluebluebluered,1  0  0  0  0  1,2,0
11710207,Button0Red,1,"{""Source1"": 0.50, ""Source2"": 0.55, ""Source3"": 0.65}",40,6,6,6,4072.79999999981,red,0,6,0,js-scroll-button-response,162,1,2,80,55           55           65           50           50           65,blueredredredredred,0  1  1  1  1  1,2,0
11710207,Button0Red,1,"{""Source1"": 0.50, ""Source2"": 0.55, ""Source3"": 0.65}",40,6,6,6,5872.79999999981,red,1,6,0,js-scroll-button-response,165,0,3,81,55           65           50           65           65           55,redblueredblueredblue,1  0  1  0  1  0,2,0
11710207,Button0Red,1,"{""Source1"": 0.50, ""Source2"": 0.55, ""Source3"": 0.65}",40,6,6,6,3592.79999999981,red,0,6,0,js-scroll-button-response,167,1,3,82,50  50  65  50  50  50,redredredblueredred,1  1  1  0  1  1,2,0
11710207,Button0Red,1,"{""Source1"": 0.50, ""Source2"": 0.55, ""Source3"": 0.65}",40,6,6,6,3296.59999999963,red,0,6,0,js-scroll-button-response,169,1,3,83,55           65           50           50           50           55,blueblueredredredblue,0  0  1  1  1  0,2,0
11710207,Button0Red,1,"{""Source1"": 0.50, ""Source2"": 0.55, ""Source3"": 0.65}",40,6,6,6,3686.70000000019,blue,0,6,1,js-scroll-button-response,171,0,3,84,55           65           50           65           55           65,redblueblueredblueblue,1  0  0  1  0  0,2,0
11710207,Button0Red,1,"{""Source1"": 0.50, ""Source2"": 0.55, ""Source3"": 0.65}",40,6,6,6,3805.90000000037,red,1,6,0,js-scroll-button-response,173,0,3,85,65           65           50           65           55           65,redblueblueredblueblue,1  0  0  1  0  0,2,0
11710207,Button0Red,1,"{""Source1"": 0.50, ""Source2"": 0.55, ""Source3"": 0.65}",40,6,6,6,3798.59999999963,red,0,6,0,js-scroll-button-response,175,1,3,86,50  65  50  50  65  50,redblueredblueredblue,1  0  1  0  1  0,2,0
11710207,Button0Red,1,"{""Source1"": 0.50, ""Source2"": 0.55, ""Source3"": 0.65}",40,6,6,6,4727.89999999944,blue,1,6,1,js-scroll-button-response,177,1,3,87,55           65           50           50           50           50,blueblueblueredredblue,0  0  0  1  1  0,2,0
11710207,Button0Red,1,"{""Source1"": 0.50, ""Source2"": 0.55, ""Source3"": 0.65}",40,6,6,6,4399.59999999963,red,0,6,0,js-scroll-button-response,179,1,3,88,50           55           65           55           65           50,redblueredblueredred,1  0  1  0  1  1,2,0
11710207,Button0Red,1,"{""Source1"": 0.50, ""Source2"": 0.55, ""Source3"": 0.65}",40,6,6,6,3884.59999999963,blue,0,6,1,js-scroll-button-response,181,0,3,89,55           65           55           65           65           65,redblueblueblueblueblue,1  0  0  0  0  0,2,0
11710207,Button0Red,1,"{""Source1"": 0.50, ""Source2"": 0.55, ""Source3"": 0.65}",40,6,6,6,3571.20000000019,blue,0,6,1,js-scroll-button-response,183,0,3,90,55           65           50           50           55           50,redredblueredblueblue,1  1  0  1  0  0,2,0
11710207,Button0Red,1,"{""Source1"": 0.50, ""Source2"": 0.55, ""Source3"": 0.65}",40,6,6,6,4048.70000000019,blue,1,6,1,js-scroll-button-response,185,1,3,91,55           65           55           55           65           55,blueblueredredblueblue,0  0  1  1  0  0,2,0
11710207,Button0Red,1,"{""Source1"": 0.50, ""Source2"": 0.55, ""Source3"": 0.65}",40,6,6,6,3719.79999999981,red,0,6,0,js-scroll-button-response,187,1,3,92,50           50           55           65           65           65,blueredblueredredblue,0  1  0  1  1  0,2,0
11710207,Button0Red,1,"{""Source1"": 0.50, ""Source2"": 0.55, ""Source3"": 0.65}",40,6,6,6,4786.60000000056,red,0,6,0,js-scroll-button-response,189,1,3,93,55           55           50           55           55           65,redredredredredblue,1  1  1  1  1  0,2,0
11710207,Button0Red,1,"{""Source1"": 0.50, ""Source2"": 0.55, ""Source3"": 0.65}",40,6,6,6,4178.69999999925,red,0,6,0,js-scroll-button-response,191,1,3,94,55           50           55           55           50           65,blueredblueblueredred,0  1  0  0  1  1,2,0
11710207,Button0Red,1,"{""Source1"": 0.50, ""Source2"": 0.55, ""Source3"": 0.65}",40,6,6,6,5214.60000000056,blue,1,6,1,js-scroll-button-response,193,1,3,95,55           55           55           65           65           50,redredbluebluebluered,1  1  0  0  0  1,2,0
11710207,Button0Red,1,"{""Source1"": 0.50, ""Source2"": 0.55, ""Source3"": 0.65}",40,6,6,6,4463.29999999981,red,0,6,0,js-scroll-button-response,195,1,3,96,65           50           55           65           65           65,redblueredredbluered,1  0  1  1  0  1,2,0
11710207,Button0Red,1,"{""Source1"": 0.50, ""Source2"": 0.55, ""Source3"": 0.65}",40,6,6,6,4732.70000000019,red,0,6,0,js-scroll-button-response,197,1,3,97,50           55           55           55           50           50,redredredbluebluered,1  1  1  0  0  1,2,0
11710207,Button0Red,1,"{""Source1"": 0.50, ""Source2"": 0.55, ""Source3"": 0.65}",40,6,6,6,5111.29999999981,blue,0,6,1,js-scroll-button-response,199,0,3,98,65           55           55           55           55           65,blueblueblueredredred,0  0  0  1  1  1,2,0
11710207,Button0Red,1,"{""Source1"": 0.50, ""Source2"": 0.55, ""Source3"": 0.65}",40,6,6,6,4441.79999999981,red,0,6,0,js-scroll-button-response,201,1,3,99,55           65           55           65           55           55,blueredredredredred,0  1  1  1  1  1,2,0
11710207,Button0Red,1,"{""Source1"": 0.50, ""Source2"": 0.55, ""Source3"": 0.65}",40,6,6,6,4554.59999999963,red,0,6,0,js-scroll-button-response,203,1,3,100,50           55           65           50           55           65,redblueredredredred,1  0  1  1  1  1,2,0
11710207,Button0Red,1,"{""Source1"": 0.50, ""Source2"": 0.55, ""Source3"": 0.65}",40,6,6,6,4514.5,red,0,6,0,js-scroll-button-response,205,1,3,101,55           65           50           55           50           65,redblueredblueredred,1  0  1  0  1  1,2,0
11710207,Button0Red,1,"{""Source1"": 0.50, ""Source2"": 0.55, ""Source3"": 0.65}",40,6,6,6,4588,blue,0,6,1,js-scroll-button-response,207,0,3,102,55           55           65           65           55           65,redredblueblueredblue,1  1  0  0  1  0,2,0
11710207,Button0Red,1,"{""Source1"": 0.50, ""Source2"": 0.55, ""Source3"": 0.65}",40,6,6,6,5231.20000000019,red,1,6,0,js-scroll-button-response,209,0,3,103,65           55           55           65           55           65,redblueblueblueredblue,1  0  0  0  1  0,2,0
11710207,Button0Red,1,"{""Source1"": 0.50, ""Source2"": 0.55, ""Source3"": 0.65}",40,6,6,6,6191.19999999925,red,1,6,0,js-scroll-button-response,211,0,3,104,65           50           50           55           50           65,redblueredredredblue,1  0  1  1  1  0,2,0
11710207,Button0Red,1,"{""Source1"": 0.50, ""Source2"": 0.55, ""Source3"": 0.65}",40,6,6,6,4341,blue,1,6,1,js-scroll-button-response,213,1,3,105,65           50           55           55           55           50,blueblueblueredblueblue,0  0  0  1  0  0,2,0
11710207,Button0Red,1,"{""Source1"": 0.50, ""Source2"": 0.55, ""Source3"": 0.65}",40,6,6,6,4642.89999999944,red,0,6,0,js-scroll-button-response,215,1,3,106,65           65           50           65           55           65,redredblueredredblue,1  1  0  1  1  0,2,0
11710207,Button0Red,1,"{""Source1"": 0.50, ""Source2"": 0.55, ""Source3"": 0.65}",40,6,6,6,6904,blue,1,6,1,js-scroll-button-response,217,1,3,107,55           55           50           55           55           55,redblueredblueblueblue,1  0  1  0  0  0,2,0
11710207,Button0Red,1,"{""Source1"": 0.50, ""Source2"": 0.55, ""Source3"": 0.65}",40,6,6,6,4939.80000000075,red,0,6,0,js-scroll-button-response,219,1,3,108,50           65           65           65           65           55,blueblueredredredred,0  0  1  1  1  1,2,0
11710207,Button0Red,1,"{""Source1"": 0.50, ""Source2"": 0.55, ""Source3"": 0.65}",40,6,6,6,5429.59999999963,red,1,6,0,js-scroll-button-response,221,0,3,109,65           65           55           65           55           55,redbluebluebluebluered,1  0  0  0  0  1,2,0
11710207,Button0Red,1,"{""Source1"": 0.50, ""Source2"": 0.55, ""Source3"": 0.65}",40,6,6,6,5315.10000000056,blue,1,6,1,js-scroll-button-response,223,1,3,110,65           65           55           50           55           55,blueredredredblueblue,0  1  1  1  0  0,2,0
11710207,Button0Red,1,"{""Source1"": 0.50, ""Source2"": 0.55, ""Source3"": 0.65}",40,6,6,6,5326.79999999981,blue,1,6,1,js-scroll-button-response,225,1,3,111,65  65  65  65  50  50,blueblueredblueredred,0  0  1  0  1  1,2,0
11710207,Button0Red,1,"{""Source1"": 0.50, ""Source2"": 0.55, ""Source3"": 0.65}",40,6,6,6,4302,blue,0,6,1,js-scroll-button-response,227,0,3,112,55           55           50           55           55           50,redredredredredblue,1  1  1  1  1  0,2,0
11710207,Button0Red,1,"{""Source1"": 0.50, ""Source2"": 0.55, ""Source3"": 0.65}",40,6,6,6,4712.79999999981,red,1,6,0,js-scroll-button-response,229,0,3,113,55           55           65           65           65           65,blueredredbluebluered,0  1  1  0  0  1,2,0
11710207,Button0Red,1,"{""Source1"": 0.50, ""Source2"": 0.55, ""Source3"": 0.65}",40,6,6,6,4578.39999999944,red,0,6,0,js-scroll-button-response,231,1,3,114,55           55           65           55           65           55,redblueredblueredred,1  0  1  0  1  1,2,0
11710207,Button0Red,1,"{""Source1"": 0.50, ""Source2"": 0.55, ""Source3"": 0.65}",40,6,6,6,5120.5,red,0,6,0,js-scroll-button-response,233,1,3,115,50           55           65           50           65           50,blueblueredblueredblue,0  0  1  0  1  0,2,0
11710207,Button0Red,1,"{""Source1"": 0.50, ""Source2"": 0.55, ""Source3"": 0.65}",40,6,6,6,4268.79999999981,red,1,6,0,js-scroll-button-response,235,0,3,116,65           50           65           55           65           65,blueredredbluebluered,0  1  1  0  0  1,2,0
11710207,Button0Red,1,"{""Source1"": 0.50, ""Source2"": 0.55, ""Source3"": 0.65}",40,6,6,6,4431.79999999981,red,1,6,0,js-scroll-button-response,237,0,3,117,65           50           50           50           55           55,redredredredblueblue,1  1  1  1  0  0,2,0
11710207,Button0Red,1,"{""Source1"": 0.50, ""Source2"": 0.55, ""Source3"": 0.65}",40,6,6,6,5243.39999999944,blue,0,6,1,js-scroll-button-response,239,0,3,118,50           55           50           50           50           65,blueredredblueredred,0  1  1  0  1  1,2,0
11710207,Button0Red,1,"{""Source1"": 0.50, ""Source2"": 0.55, ""Source3"": 0.65}",40,6,6,6,4252.70000000019,red,1,6,0,js-scroll-button-response,241,0,3,119,65           55           55           65           50           65,redblueblueredredblue,1  0  0  1  1  0,2,0
11710207,Button0Red,1,"{""Source1"": 0.50, ""Source2"": 0.55, ""Source3"": 0.65}",40,6,6,6,4815.79999999981,red,0,6,0,js-scroll-button-response,243,1,3,120,65           50           55           55           65           65,redredblueblueredred,1  1  0  0  1  1,2,0
11710207,Button0Red,1,"{""Source1"": 0.50, ""Source2"": 0.55, ""Source3"": 0.65}",40,6,6,6,5962.69999999925,red,0,6,0,js-scroll-button-response,246,1,4,121,50           50           50           65           55           55,blueblueblueredredblue,0  0  0  1  1  0,2,0
11710207,Button0Red,1,"{""Source1"": 0.50, ""Source2"": 0.55, ""Source3"": 0.65}",40,6,6,6,6069.5,red,1,6,0,js-scroll-button-response,248,0,4,122,50  50  50  65  50  65,redblueredblueredblue,1  0  1  0  1  0,2,0
11710207,Button0Red,1,"{""Source1"": 0.50, ""Source2"": 0.55, ""Source3"": 0.65}",40,6,6,6,5631.70000000019,red,1,6,0,js-scroll-button-response,250,0,4,123,55           65           55           50           55           50,redbluebluebluebluered,1  0  0  0  0  1,2,0
11710207,Button0Red,1,"{""Source1"": 0.50, ""Source2"": 0.55, ""Source3"": 0.65}",40,6,6,6,5097.40000000037,red,0,6,0,js-scroll-button-response,252,1,4,124,55           65           50           55           55           55,blueredblueredredred,0  1  0  1  1  1,2,0
11710207,Button0Red,1,"{""Source1"": 0.50, ""Source2"": 0.55, ""Source3"": 0.65}",40,6,6,6,5124.90000000037,red,0,6,0,js-scroll-button-response,254,1,4,125,50           50           65           50           55           55,blueredblueredredblue,0  1  0  1  1  0,2,0
11710207,Button0Red,1,"{""Source1"": 0.50, ""Source2"": 0.55, ""Source3"": 0.65}",40,6,6,6,5647.10000000056,red,0,6,0,js-scroll-button-response,256,1,4,126,55           55           55           50           50           65,redredbluebluebluered,1  1  0  0  0  1,2,0
11710207,Button0Red,1,"{""Source1"": 0.50, ""Source2"": 0.55, ""Source3"": 0.65}",40,6,6,6,11518.7999999998,red,1,6,0,js-scroll-button-response,258,0,4,127,50  65  50  50  50  50,blueredblueblueblueblue,0  1  0  0  0  0,2,0
11710207,Button0Red,1,"{""Source1"": 0.50, ""Source2"": 0.55, ""Source3"": 0.65}",40,6,6,6,4772.09999999963,blue,0,6,1,js-scroll-button-response,260,0,4,128,50           65           50           55           65           65,redredblueredbluered,1  1  0  1  0  1,2,0
11710207,Button0Red,1,"{""Source1"": 0.50, ""Source2"": 0.55, ""Source3"": 0.65}",40,6,6,6,6069.29999999981,blue,1,6,1,js-scroll-button-response,262,1,4,129,50           50           55           55           50           65,redredredblueredblue,1  1  1  0  1  0,2,0
11710207,Button0Red,1,"{""Source1"": 0.50, ""Source2"": 0.55, ""Source3"": 0.65}",40,6,6,6,10444.0999999996,blue,1,6,1,js-scroll-button-response,264,1,4,130,65           65           55           50           50           50,blueredredredblueblue,0  1  1  1  0  0,2,0
11710207,Button0Red,1,"{""Source1"": 0.50, ""Source2"": 0.55, ""Source3"": 0.65}",40,6,6,6,12388.7999999998,red,0,6,0,js-scroll-button-response,266,1,4,131,65           50           65           65           55           55,blueredredredredred,0  1  1  1  1  1,2,0
11710207,Button0Red,1,"{""Source1"": 0.50, ""Source2"": 0.55, ""Source3"": 0.65}",40,6,6,6,8344.79999999981,blue,1,6,1,js-scroll-button-response,268,1,4,132,65  65  65  65  50  65,redblueblueblueblueblue,1  0  0  0  0  0,2,0
11710207,Button0Red,1,"{""Source1"": 0.50, ""Source2"": 0.55, ""Source3"": 0.65}",40,6,6,6,7496.79999999981,red,1,6,0,js-scroll-button-response,270,0,4,133,65           50           65           65           65           55,blueblueblueblueredblue,0  0  0  0  1  0,2,0
11710207,Button0Red,1,"{""Source1"": 0.50, ""Source2"": 0.55, ""Source3"": 0.65}",40,6,6,6,4925.70000000019,red,1,6,0,js-scroll-button-response,272,0,4,134,55           50           50           50           55           65,redredblueredbluered,1  1  0  1  0  1,2,0
11710207,Button0Red,1,"{""Source1"": 0.50, ""Source2"": 0.55, ""Source3"": 0.65}",40,6,6,6,5174.90000000037,blue,0,6,1,js-scroll-button-response,274,0,4,135,65           50           50           50           65           55,redredbluebluebluered,1  1  0  0  0  1,2,0
11710207,Button0Red,1,"{""Source1"": 0.50, ""Source2"": 0.55, ""Source3"": 0.65}",40,6,6,6,4940.19999999925,blue,0,6,1,js-scroll-button-response,276,0,4,136,50           55           55           65           65           50,blueredredredblueblue,0  1  1  1  0  0,2,0
11710207,Button0Red,1,"{""Source1"": 0.50, ""Source2"": 0.55, ""Source3"": 0.65}",40,6,6,6,4464.10000000056,red,0,6,0,js-scroll-button-response,278,1,4,137,55           65           65           55           65           65,redblueredredredred,1  0  1  1  1  1,2,0
11710207,Button0Red,1,"{""Source1"": 0.50, ""Source2"": 0.55, ""Source3"": 0.65}",40,6,6,6,4337.90000000037,red,0,6,0,js-scroll-button-response,280,1,4,138,55           50           65           65           50           65,redredredredredblue,1  1  1  1  1  0,2,0
11710207,Button0Red,1,"{""Source1"": 0.50, ""Source2"": 0.55, ""Source3"": 0.65}",40,6,6,6,5454.90000000037,blue,1,6,1,js-scroll-button-response,282,1,4,139,50           50           65           65           55           65,redredblueblueredblue,1  1  0  0  1  0,2,0
11710207,Button0Red,1,"{""Source1"": 0.50, ""Source2"": 0.55, ""Source3"": 0.65}",40,6,6,6,4370.70000000019,red,0,6,0,js-scroll-button-response,284,1,4,140,55           50           50           55           65           65,redblueredblueredred,1  0  1  0  1  1,2,0
11710207,Button0Red,1,"{""Source1"": 0.50, ""Source2"": 0.55, ""Source3"": 0.65}",40,6,6,6,7312.5,blue,1,6,1,js-scroll-button-response,286,1,4,141,50           50           65           55           50           50,redredblueredredblue,1  1  0  1  1  0,2,0
11710207,Button0Red,1,"{""Source1"": 0.50, ""Source2"": 0.55, ""Source3"": 0.65}",40,6,6,6,12585.2000000002,red,0,6,0,js-scroll-button-response,288,1,4,142,55           55           65           50           50           65,redredredblueredred,1  1  1  0  1  1,2,0
11710207,Button0Red,1,"{""Source1"": 0.50, ""Source2"": 0.55, ""Source3"": 0.65}",40,6,6,6,4979.60000000056,red,0,6,0,js-scroll-button-response,290,1,4,143,55           65           50           50           55           65,redredredbluebluered,1  1  1  0  0  1,2,0
11710207,Button0Red,1,"{""Source1"": 0.50, ""Source2"": 0.55, ""Source3"": 0.65}",40,6,6,6,4889.90000000037,red,0,6,0,js-scroll-button-response,292,1,4,144,65           50           65           55           55           65,redredredredredblue,1  1  1  1  1  0,2,0
11710207,Button0Red,1,"{""Source1"": 0.50, ""Source2"": 0.55, ""Source3"": 0.65}",40,6,6,6,4928.5,blue,0,6,1,js-scroll-button-response,294,0,4,145,55           65           55           50           50           65,blueredblueredbluered,0  1  0  1  0  1,2,0
11710207,Button0Red,1,"{""Source1"": 0.50, ""Source2"": 0.55, ""Source3"": 0.65}",40,6,6,6,4404.79999999981,blue,1,6,1,js-scroll-button-response,296,1,4,146,55           50           55           65           50           50,blueblueredblueredblue,0  0  1  0  1  0,2,0
11710207,Button0Red,1,"{""Source1"": 0.50, ""Source2"": 0.55, ""Source3"": 0.65}",40,6,6,6,5143.29999999981,red,1,6,0,js-scroll-button-response,298,0,4,147,65           55           65           55           65           55,redblueredredredblue,1  0  1  1  1  0,2,0
11710207,Button0Red,1,"{""Source1"": 0.50, ""Source2"": 0.55, ""Source3"": 0.65}",40,6,6,6,4543,red,0,6,0,js-scroll-button-response,300,1,4,148,50  65  65  65  65  50,blueredredredredblue,0  1  1  1  1  0,2,0
11710207,Button0Red,1,"{""Source1"": 0.50, ""Source2"": 0.55, ""Source3"": 0.65}",40,6,6,6,6108.70000000019,red,1,6,0,js-scroll-button-response,302,0,4,149,65           55           65           55           50           65,blueredblueredblueblue,0  1  0  1  0  0,2,0
11710207,Button0Red,1,"{""Source1"": 0.50, ""Source2"": 0.55, ""Source3"": 0.65}",40,6,6,6,6899.79999999981,red,0,6,0,js-scroll-button-response,304,1,4,150,65           55           50           55           65           65,blueredredredredred,0  1  1  1  1  1,2,0
11710207,Button0Red,1,"{""Source1"": 0.50, ""Source2"": 0.55, ""Source3"": 0.65}",40,6,6,6,5970.79999999981,blue,1,6,1,js-scroll-button-response,306,1,4,151,55           65           65           65           65           55,blueblueredblueblueblue,0  0  1  0  0  0,2,0
11710207,Button0Red,1,"{""Source1"": 0.50, ""Source2"": 0.55, ""Source3"": 0.65}",40,6,6,6,4965.59999999963,blue,1,6,1,js-scroll-button-response,308,1,4,152,50           50           65           65           55           50,blueredredbluebluered,0  1  1  0  0  1,2,0
11710207,Button0Red,1,"{""Source1"": 0.50, ""Source2"": 0.55, ""Source3"": 0.65}",40,6,6,6,4699,red,0,6,0,js-scroll-button-response,310,1,4,153,50           50           55           65           50           50,blueredredblueredblue,0  1  1  0  1  0,2,0
11710207,Button0Red,1,"{""Source1"": 0.50, ""Source2"": 0.55, ""Source3"": 0.65}",40,6,6,6,5335.20000000019,red,0,6,0,js-scroll-button-response,312,1,4,154,50           50           50           50           55           50,redblueblueblueredred,1  0  0  0  1  1,2,0
11710207,Button0Red,1,"{""Source1"": 0.50, ""Source2"": 0.55, ""Source3"": 0.65}",40,6,6,6,4295.59999999963,blue,1,6,1,js-scroll-button-response,314,1,4,155,50           50           50           55           50           65,redredblueblueblueblue,1  1  0  0  0  0,2,0
11710207,Button0Red,1,"{""Source1"": 0.50, ""Source2"": 0.55, ""Source3"": 0.65}",40,6,6,6,4341,red,0,6,0,js-scroll-button-response,316,1,4,156,50           65           50           50           55           55,redredblueblueredblue,1  1  0  0  1  0,2,0
11710207,Button0Red,1,"{""Source1"": 0.50, ""Source2"": 0.55, ""Source3"": 0.65}",40,6,6,6,4273.29999999981,red,0,6,0,js-scroll-button-response,318,1,4,157,55           55           55           65           65           55,blueblueredblueredred,0  0  1  0  1  1,2,0
11710207,Button0Red,1,"{""Source1"": 0.50, ""Source2"": 0.55, ""Source3"": 0.65}",40,6,6,6,4212.79999999981,red,1,6,0,js-scroll-button-response,320,0,4,158,50           65           55           55           55           55,blueredredblueblueblue,0  1  1  0  0  0,2,0
11710207,Button0Red,1,"{""Source1"": 0.50, ""Source2"": 0.55, ""Source3"": 0.65}",40,6,6,6,5312,red,0,6,0,js-scroll-button-response,322,1,4,159,65           50           65           50           65           55,blueredredblueredred,0  1  1  0  1  1,2,0
11710207,Button0Red,1,"{""Source1"": 0.50, ""Source2"": 0.55, ""Source3"": 0.65}",40,6,6,6,4850.59999999963,blue,1,6,1,js-scroll-button-response,324,1,4,160,65           55           55           55           50           50,blueredblueredblueblue,0  1  0  1  0  0,2,0
11710207,Button0Red,1,"{""Source1"": 0.50, ""Source2"": 0.55, ""Source3"": 0.65}",40,6,6,6,4594.20000000019,red,0,6,0,js-scroll-button-response,327,1,5,161,50           65           55           65           65           50,redblueredredredred,1  0  1  1  1  1,2,0
11710207,Button0Red,1,"{""Source1"": 0.50, ""Source2"": 0.55, ""Source3"": 0.65}",40,6,6,6,4349.89999999944,blue,0,6,1,js-scroll-button-response,329,0,5,162,65           55           50           50           55           55,redblueblueredredred,1  0  0  1  1  1,2,0
11710207,Button0Red,1,"{""Source1"": 0.50, ""Source2"": 0.55, ""Source3"": 0.65}",40,6,6,6,3971.70000000019,blue,1,6,1,js-scroll-button-response,331,1,5,163,55           55           65           55           50           55,redredredblueredblue,1  1  1  0  1  0,2,0
11710207,Button0Red,1,"{""Source1"": 0.50, ""Source2"": 0.55, ""Source3"": 0.65}",40,6,6,6,4191,red,0,6,0,js-scroll-button-response,333,1,5,164,50           65           55           55           55           55,redredblueredredblue,1  1  0  1  1  0,2,0
11710207,Button0Red,1,"{""Source1"": 0.50, ""Source2"": 0.55, ""Source3"": 0.65}",40,6,6,6,4714.69999999925,blue,1,6,1,js-scroll-button-response,335,1,5,165,50           55           50           65           50           65,redblueblueblueblueblue,1  0  0  0  0  0,2,0
11710207,Button0Red,1,"{""Source1"": 0.50, ""Source2"": 0.55, ""Source3"": 0.65}",40,6,6,6,4263.70000000019,blue,0,6,1,js-scroll-button-response,337,0,5,166,65           55           65           55           50           55,blueredredredbluered,0  1  1  1  0  1,2,0
11710207,Button0Red,1,"{""Source1"": 0.50, ""Source2"": 0.55, ""Source3"": 0.65}",40,6,6,6,4209.90000000037,red,0,6,0,js-scroll-button-response,339,1,5,167,55           65           55           50           50           55,blueblueredredredred,0  0  1  1  1  1,2,0
11710207,Button0Red,1,"{""Source1"": 0.50, ""Source2"": 0.55, ""Source3"": 0.65}",40,6,6,6,4437.5,red,0,6,0,js-scroll-button-response,341,1,5,168,65           65           65           55           65           65,redblueblueblueredred,1  0  0  0  1  1,2,0
11710207,Button0Red,1,"{""Source1"": 0.50, ""Source2"": 0.55, ""Source3"": 0.65}",40,6,6,6,7828.70000000019,red,1,6,0,js-scroll-button-response,343,0,5,169,55           55           55           50           50           55,redblueredredblueblue,1  0  1  1  0  0,2,0
11710207,Button0Red,1,"{""Source1"": 0.50, ""Source2"": 0.55, ""Source3"": 0.65}",40,6,6,6,9776.79999999981,red,0,6,0,js-scroll-button-response,345,1,5,170,55           50           50           55           50           55,blueredblueredbluered,0  1  0  1  0  1,2,0
11710207,Button0Red,1,"{""Source1"": 0.50, ""Source2"": 0.55, ""Source3"": 0.65}",40,6,6,6,4884.79999999981,red,0,6,0,js-scroll-button-response,347,1,5,171,50           55           50           55           65           50,redblueredredredred,1  0  1  1  1  1,2,0
11710207,Button0Red,1,"{""Source1"": 0.50, ""Source2"": 0.55, ""Source3"": 0.65}",40,6,6,6,5066.79999999981,red,0,6,0,js-scroll-button-response,349,1,5,172,55           50           65           55           50           65,blueredredredblueblue,0  1  1  1  0  0,2,0
11710207,Button0Red,1,"{""Source1"": 0.50, ""Source2"": 0.55, ""Source3"": 0.65}",40,6,6,6,5309.79999999981,blue,0,6,1,js-scroll-button-response,351,0,5,173,65           55           50           55           55           55,redblueredredbluered,1  0  1  1  0  1,2,0
11710207,Button0Red,1,"{""Source1"": 0.50, ""Source2"": 0.55, ""Source3"": 0.65}",40,6,6,6,5261.79999999981,red,0,6,0,js-scroll-button-response,353,1,5,174,55           50           65           50           65           50,redredredblueredred,1  1  1  0  1  1,2,0
11710207,Button0Red,1,"{""Source1"": 0.50, ""Source2"": 0.55, ""Source3"": 0.65}",40,6,6,6,5586.69999999925,red,1,6,0,js-scroll-button-response,355,0,5,175,50           50           65           55           50           55,blueredredredbluered,0  1  1  1  0  1,2,0
11710207,Button0Red,1,"{""Source1"": 0.50, ""Source2"": 0.55, ""Source3"": 0.65}",40,6,6,6,5043,blue,0,6,1,js-scroll-button-response,357,0,5,176,50           50           55           55           50           50,blueblueredblueredred,0  0  1  0  1  1,2,0
11710207,Button0Red,1,"{""Source1"": 0.50, ""Source2"": 0.55, ""Source3"": 0.65}",40,6,6,6,5030.90000000037,blue,1,6,1,js-scroll-button-response,359,1,5,177,65           50           65           55           50           55,redredblueredblueblue,1  1  0  1  0  0,2,0
11710207,Button0Red,1,"{""Source1"": 0.50, ""Source2"": 0.55, ""Source3"": 0.65}",40,6,6,6,5324.70000000019,red,0,6,0,js-scroll-button-response,361,1,5,178,55           65           65           50           50           65,blueredblueredredred,0  1  0  1  1  1,2,0
11710207,Button0Red,1,"{""Source1"": 0.50, ""Source2"": 0.55, ""Source3"": 0.65}",40,6,6,6,4604.79999999981,red,1,6,0,js-scroll-button-response,363,0,5,179,55           50           65           50           50           50,blueredblueredblueblue,0  1  0  1  0  0,2,0
11710207,Button0Red,1,"{""Source1"": 0.50, ""Source2"": 0.55, ""Source3"": 0.65}",40,6,6,6,4661.79999999981,red,0,6,0,js-scroll-button-response,365,1,5,180,50           55           50           50           50           50,blueredredblueredblue,0  1  1  0  1  0,2,0
11710207,Button0Red,1,"{""Source1"": 0.50, ""Source2"": 0.55, ""Source3"": 0.65}",40,6,6,6,5297.29999999981,red,1,6,0,js-scroll-button-response,367,0,5,181,65           65           50           65           55           65,redredblueblueredblue,1  1  0  0  1  0,2,0
11710207,Button0Red,1,"{""Source1"": 0.50, ""Source2"": 0.55, ""Source3"": 0.65}",40,6,6,6,5074.79999999981,blue,1,6,1,js-scroll-button-response,369,1,5,182,65           55           55           65           55           50,blueredbluebluebluered,0  1  0  0  0  1,2,0
11710207,Button0Red,1,"{""Source1"": 0.50, ""Source2"": 0.55, ""Source3"": 0.65}",40,6,6,6,5446.80000000075,red,1,6,0,js-scroll-button-response,371,0,5,183,55           55           50           50           55           55,blueredredredbluered,0  1  1  1  0  1,2,0
11710207,Button0Red,1,"{""Source1"": 0.50, ""Source2"": 0.55, ""Source3"": 0.65}",40,6,6,6,4569.80000000075,red,0,6,0,js-scroll-button-response,373,1,5,184,50  65  50  65  65  65,redredredblueredred,1  1  1  0  1  1,2,0
11710207,Button0Red,1,"{""Source1"": 0.50, ""Source2"": 0.55, ""Source3"": 0.65}",40,6,6,6,4976.09999999963,red,0,6,0,js-scroll-button-response,375,1,5,185,50           55           50           55           65           50,blueredblueblueredblue,0  1  0  0  1  0,2,0
11710207,Button0Red,1,"{""Source1"": 0.50, ""Source2"": 0.55, ""Source3"": 0.65}",40,6,6,6,5269.89999999944,red,1,6,0,js-scroll-button-response,377,0,5,186,50           55           50           50           65           50,blueblueredblueredblue,0  0  1  0  1  0,2,0
11710207,Button0Red,1,"{""Source1"": 0.50, ""Source2"": 0.55, ""Source3"": 0.65}",40,6,6,6,5354.60000000056,blue,1,6,1,js-scroll-button-response,379,1,5,187,65           50           65           65           50           55,bluebluebluebluebluered,0  0  0  0  0  1,2,0
11710207,Button0Red,1,"{""Source1"": 0.50, ""Source2"": 0.55, ""Source3"": 0.65}",40,6,6,6,8948.90000000037,red,0,6,0,js-scroll-button-response,381,1,5,188,55           65           55           65           55           65,blueredblueredbluered,0  1  0  1  0  1,2,0
11710207,Button0Red,1,"{""Source1"": 0.50, ""Source2"": 0.55, ""Source3"": 0.65}",40,6,6,6,7892.70000000019,red,0,6,0,js-scroll-button-response,383,1,5,189,65           55           55           50           55           50,redblueredredblueblue,1  0  1  1  0  0,2,0
11710207,Button0Red,1,"{""Source1"": 0.50, ""Source2"": 0.55, ""Source3"": 0.65}",40,6,6,6,12425.0999999996,red,1,6,0,js-scroll-button-response,385,0,5,190,50           55           65           65           55           50,redblueblueredredblue,1  0  0  1  1  0,2,0
11710207,Button0Red,1,"{""Source1"": 0.50, ""Source2"": 0.55, ""Source3"": 0.65}",40,6,6,6,85205.5999999996,red,0,6,0,js-scroll-button-response,387,1,5,191,55           65           50           50           65           50,redblueredredredred,1  0  1  1  1  1,2,0
11710207,Button0Red,1,"{""Source1"": 0.50, ""Source2"": 0.55, ""Source3"": 0.65}",40,6,6,6,6231.79999999981,blue,0,6,1,js-scroll-button-response,389,0,5,192,50           50           65           65           50           55,redredredblueredred,1  1  1  0  1  1,2,0
11710207,Button0Red,1,"{""Source1"": 0.50, ""Source2"": 0.55, ""Source3"": 0.65}",40,6,6,6,4924.90000000037,red,0,6,0,js-scroll-button-response,391,1,5,193,65           55           65           55           55           50,redredblueredredred,1  1  0  1  1  1,2,0
11710207,Button0Red,1,"{""Source1"": 0.50, ""Source2"": 0.55, ""Source3"": 0.65}",40,6,6,6,4174.10000000056,blue,1,6,1,js-scroll-button-response,393,1,5,194,50           65           55           65           65           50,redredbluebluebluered,1  1  0  0  0  1,2,0
11710207,Button0Red,1,"{""Source1"": 0.50, ""Source2"": 0.55, ""Source3"": 0.65}",40,6,6,6,4721.90000000037,red,0,6,0,js-scroll-button-response,395,1,5,195,50           65           50           65           55           50,blueredblueredbluered,0  1  0  1  0  1,2,0
11710207,Button0Red,1,"{""Source1"": 0.50, ""Source2"": 0.55, ""Source3"": 0.65}",40,6,6,6,5145.70000000019,red,0,6,0,js-scroll-button-response,397,1,5,196,65           50           55           50           65           65,redblueblueredredblue,1  0  0  1  1  0,2,0
11710207,Button0Red,1,"{""Source1"": 0.50, ""Source2"": 0.55, ""Source3"": 0.65}",40,6,6,6,10475.7000000002,blue,0,6,1,js-scroll-button-response,399,0,5,197,50           50           65           50           55           65,redredblueredredred,1  1  0  1  1  1,2,0
11710207,Button0Red,1,"{""Source1"": 0.50, ""Source2"": 0.55, ""Source3"": 0.65}",40,6,6,6,61240.5,blue,1,6,1,js-scroll-button-response,401,1,5,198,55           55           50           50           65           50,redblueredblueredblue,1  0  1  0  1  0,2,0
11710207,Button0Red,1,"{""Source1"": 0.50, ""Source2"": 0.55, ""Source3"": 0.65}",40,6,6,6,6873.80000000075,blue,1,6,1,js-scroll-button-response,403,1,5,199,65  50  65  50  50  50,redredredblueredred,1  1  1  0  1  1,2,0
11710207,Button0Red,1,"{""Source1"": 0.50, ""Source2"": 0.55, ""Source3"": 0.65}",40,6,6,6,9220.20000000019,red,1,6,0,js-scroll-button-response,405,0,5,200,55           50           55           55           55           50,redredblueblueredred,1  1  0  0  1  1,2,0
11710207,Button0Red,1,"{""Source1"": 0.50, ""Source2"": 0.55, ""Source3"": 0.65}",40,6,6,6,15021.2999999998,red,1,6,0,js-scroll-button-response,408,0,6,201,55           50           55           65           65           65,redblueblueblueredblue,1  0  0  0  1  0,2,0
11710207,Button0Red,1,"{""Source1"": 0.50, ""Source2"": 0.55, ""Source3"": 0.65}",40,6,6,6,7479.70000000019,blue,0,6,1,js-scroll-button-response,410,0,6,202,65           50           65           65           65           55,redblueblueblueredblue,1  0  0  0  1  0,2,0
11710207,Button0Red,1,"{""Source1"": 0.50, ""Source2"": 0.55, ""Source3"": 0.65}",40,6,6,6,5814.90000000037,blue,0,6,1,js-scroll-button-response,412,0,6,203,65           50           50           55           65           65,blueblueblueblueredred,0  0  0  0  1  1,2,0
11710207,Button0Red,1,"{""Source1"": 0.50, ""Source2"": 0.55, ""Source3"": 0.65}",40,6,6,6,4960.70000000019,red,0,6,0,js-scroll-button-response,414,1,6,204,50           55           50           55           65           50,redblueredredredred,1  0  1  1  1  1,2,0
11710207,Button0Red,1,"{""Source1"": 0.50, ""Source2"": 0.55, ""Source3"": 0.65}",40,6,6,6,5491.90000000037,red,1,6,0,js-scroll-button-response,416,0,6,205,50           50           50           55           50           50,blueblueredblueblueblue,0  0  1  0  0  0,2,0
11710207,Button0Red,1,"{""Source1"": 0.50, ""Source2"": 0.55, ""Source3"": 0.65}",40,6,6,6,5046.70000000019,red,0,6,0,js-scroll-button-response,418,1,6,206,55           55           65           65           50           65,blueredredredbluered,0  1  1  1  0  1,2,0
11710207,Button0Red,1,"{""Source1"": 0.50, ""Source2"": 0.55, ""Source3"": 0.65}",40,6,6,6,5191.80000000075,red,0,6,0,js-scroll-button-response,420,1,6,207,50           65           65           65           55           50,redblueredredredred,1  0  1  1  1  1,2,0
11710207,Button0Red,1,"{""Source1"": 0.50, ""Source2"": 0.55, ""Source3"": 0.65}",40,6,6,6,4828.79999999981,blue,0,6,1,js-scroll-button-response,422,0,6,208,65           65           50           50           55           55,redredredblueredred,1  1  1  0  1  1,2,0
11710207,Button0Red,1,"{""Source1"": 0.50, ""Source2"": 0.55, ""Source3"": 0.65}",40,6,6,6,4803.79999999981,red,0,6,0,js-scroll-button-response,424,1,6,209,50           55           50           55           50           65,redblueblueblueredred,1  0  0  0  1  1,2,0
11710207,Button0Red,1,"{""Source1"": 0.50, ""Source2"": 0.55, ""Source3"": 0.65}",40,6,6,6,4543.70000000019,red,0,6,0,js-scroll-button-response,426,1,6,210,50           55           55           65           50           55,redredblueredbluered,1  1  0  1  0  1,2,0
11710207,Button0Red,1,"{""Source1"": 0.50, ""Source2"": 0.55, ""Source3"": 0.65}",40,6,6,6,4518,red,1,6,0,js-scroll-button-response,428,0,6,211,50           65           55           55           65           55,blueredredredredred,0  1  1  1  1  1,2,0
11710207,Button0Red,1,"{""Source1"": 0.50, ""Source2"": 0.55, ""Source3"": 0.65}",40,6,6,6,7287.90000000037,red,1,6,0,js-scroll-button-response,430,0,6,212,65  50  50  65  65  50,redblueredblueblueblue,1  0  1  0  0  0,2,0
11710207,Button0Red,1,"{""Source1"": 0.50, ""Source2"": 0.55, ""Source3"": 0.65}",40,6,6,6,6075.89999999944,blue,1,6,1,js-scroll-button-response,432,1,6,213,65           65           55           50           50           65,redredbluebluebluered,1  1  0  0  0  1,2,0
11710207,Button0Red,1,"{""Source1"": 0.50, ""Source2"": 0.55, ""Source3"": 0.65}",40,6,6,6,8166.20000000019,blue,1,6,1,js-scroll-button-response,434,1,6,214,55           65           65           65           50           65,blueredblueblueblueblue,0  1  0  0  0  0,2,0
11710207,Button0Red,1,"{""Source1"": 0.50, ""Source2"": 0.55, ""Source3"": 0.65}",40,6,6,6,4289.39999999944,blue,0,6,1,js-scroll-button-response,436,0,6,215,55           65           55           50           50           65,redblueredredbluered,1  0  1  1  0  1,2,0
11710207,Button0Red,1,"{""Source1"": 0.50, ""Source2"": 0.55, ""Source3"": 0.65}",40,6,6,6,7172.69999999925,red,0,6,0,js-scroll-button-response,438,1,6,216,55           55           50           50           65           55,blueredredredredred,0  1  1  1  1  1,2,0
11710207,Button0Red,1,"{""Source1"": 0.50, ""Source2"": 0.55, ""Source3"": 0.65}",40,6,6,6,6475.60000000056,blue,1,6,1,js-scroll-button-response,440,1,6,217,50  65  65  65  50  50,blueblueblueblueredblue,0  0  0  0  1  0,2,0
11710207,Button0Red,1,"{""Source1"": 0.50, ""Source2"": 0.55, ""Source3"": 0.65}",40,6,6,6,11170.8000000007,red,0,6,0,js-scroll-button-response,442,1,6,218,50           50           55           55           50           55,redblueblueredbluered,1  0  0  1  0  1,2,0
11710207,Button0Red,1,"{""Source1"": 0.50, ""Source2"": 0.55, ""Source3"": 0.65}",40,6,6,6,7422.09999999963,red,1,6,0,js-scroll-button-response,444,0,6,219,55           50           55           50           50           55,redblueredredblueblue,1  0  1  1  0  0,2,0
11710207,Button0Red,1,"{""Source1"": 0.50, ""Source2"": 0.55, ""Source3"": 0.65}",40,6,6,6,8786.89999999944,red,0,6,0,js-scroll-button-response,446,1,6,220,65           65           65           55           65           50,redredredblueredblue,1  1  1  0  1  0,2,0
11710207,Button0Red,1,"{""Source1"": 0.50, ""Source2"": 0.55, ""Source3"": 0.65}",40,6,6,6,9023,blue,0,6,1,js-scroll-button-response,448,0,6,221,65           55           55           55           65           50,redredbluebluebluered,1  1  0  0  0  1,2,0
11710207,Button0Red,1,"{""Source1"": 0.50, ""Source2"": 0.55, ""Source3"": 0.65}",40,6,6,6,6290.5,red,0,6,0,js-scroll-button-response,450,1,6,222,55           65           65           50           55           50,redredblueredredred,1  1  0  1  1  1,2,0
11710207,Button0Red,1,"{""Source1"": 0.50, ""Source2"": 0.55, ""Source3"": 0.65}",40,6,6,6,7357.89999999944,red,0,6,0,js-scroll-button-response,452,1,6,223,50           65           65           50           55           55,redredblueblueredred,1  1  0  0  1  1,2,0
11710207,Button0Red,1,"{""Source1"": 0.50, ""Source2"": 0.55, ""Source3"": 0.65}",40,6,6,6,5410.79999999981,blue,0,6,1,js-scroll-button-response,454,0,6,224,65           65           55           50           50           65,blueblueblueredbluered,0  0  0  1  0  1,2,0
11710207,Button0Red,1,"{""Source1"": 0.50, ""Source2"": 0.55, ""Source3"": 0.65}",40,6,6,6,4466.09999999963,blue,0,6,1,js-scroll-button-response,456,0,6,225,50           55           50           65           65           55,redblueblueblueredred,1  0  0  0  1  1,2,0
11710207,Button0Red,1,"{""Source1"": 0.50, ""Source2"": 0.55, ""Source3"": 0.65}",40,6,6,6,4953,red,1,6,0,js-scroll-button-response,458,0,6,226,55           50           50           65           55           50,bluebluebluebluebluered,0  0  0  0  0  1,2,0
11710207,Button0Red,1,"{""Source1"": 0.50, ""Source2"": 0.55, ""Source3"": 0.65}",40,6,6,6,4396.40000000037,blue,0,6,1,js-scroll-button-response,460,0,6,227,55           65           65           55           50           50,redredredbluebluered,1  1  1  0  0  1,2,0
11710207,Button0Red,1,"{""Source1"": 0.50, ""Source2"": 0.55, ""Source3"": 0.65}",40,6,6,6,5897.70000000019,red,0,6,0,js-scroll-button-response,462,1,6,228,65           65           55           50           50           55,redredblueredredblue,1  1  0  1  1  0,2,0
11710207,Button0Red,1,"{""Source1"": 0.50, ""Source2"": 0.55, ""Source3"": 0.65}",40,6,6,6,5050.90000000037,red,0,6,0,js-scroll-button-response,464,1,6,229,50           65           50           50           65           55,redredblueredredblue,1  1  0  1  1  0,2,0
11710207,Button0Red,1,"{""Source1"": 0.50, ""Source2"": 0.55, ""Source3"": 0.65}",40,6,6,6,6850.90000000037,red,0,6,0,js-scroll-button-response,466,1,6,230,55           50           65           65           65           55,blueredredredredblue,0  1  1  1  1  0,2,0
11710207,Button0Red,1,"{""Source1"": 0.50, ""Source2"": 0.55, ""Source3"": 0.65}",40,6,6,6,6224.29999999981,red,0,6,0,js-scroll-button-response,468,1,6,231,50           50           65           55           55           65,blueblueredredbluered,0  0  1  1  0  1,2,0
11710207,Button0Red,1,"{""Source1"": 0.50, ""Source2"": 0.55, ""Source3"": 0.65}",40,6,6,6,6379.60000000056,red,0,6,0,js-scroll-button-response,470,1,6,232,55           50           65           50           55           55,redredredblueredred,1  1  1  0  1  1,2,0
11710207,Button0Red,1,"{""Source1"": 0.50, ""Source2"": 0.55, ""Source3"": 0.65}",40,6,6,6,4685.79999999981,blue,0,6,1,js-scroll-button-response,472,0,6,233,55           50           65           50           55           50,blueredredblueredblue,0  1  1  0  1  0,2,0
11710207,Button0Red,1,"{""Source1"": 0.50, ""Source2"": 0.55, ""Source3"": 0.65}",40,6,6,6,4435.5,red,0,6,0,js-scroll-button-response,474,1,6,234,55           65           55           65           65           50,blueredblueredredred,0  1  0  1  1  1,2,0
11710207,Button0Red,1,"{""Source1"": 0.50, ""Source2"": 0.55, ""Source3"": 0.65}",40,6,6,6,4934.60000000056,blue,1,6,1,js-scroll-button-response,476,1,6,235,65           55           50           50           50           50,blueredblueredblueblue,0  1  0  1  0  0,2,0
11710207,Button0Red,1,"{""Source1"": 0.50, ""Source2"": 0.55, ""Source3"": 0.65}",40,6,6,6,6104.5,red,0,6,0,js-scroll-button-response,478,1,6,236,55           65           50           55           55           50,redredblueredredblue,1  1  0  1  1  0,2,0
11710207,Button0Red,1,"{""Source1"": 0.50, ""Source2"": 0.55, ""Source3"": 0.65}",40,6,6,6,4135.80000000075,red,0,6,0,js-scroll-button-response,480,1,6,237,55           55           50           50           65           55,redredredredredblue,1  1  1  1  1  0,2,0
11710207,Button0Red,1,"{""Source1"": 0.50, ""Source2"": 0.55, ""Source3"": 0.65}",40,6,6,6,4336.90000000037,red,0,6,0,js-scroll-button-response,482,1,6,238,55           65           55           65           50           50,redredredredredred,1  1  1  1  1  1,2,0
11710207,Button0Red,1,"{""Source1"": 0.50, ""Source2"": 0.55, ""Source3"": 0.65}",40,6,6,6,6892.5,blue,0,6,1,js-scroll-button-response,484,0,6,239,65           65           65           55           50           50,blueredredbluebluered,0  1  1  0  0  1,2,0
11710207,Button0Red,1,"{""Source1"": 0.50, ""Source2"": 0.55, ""Source3"": 0.65}",40,6,6,6,4326,red,0,6,0,js-scroll-button-response,486,1,6,240,50           65           65           55           55           55,redredredredblueblue,1  1  1  1  0  0,2,0
11710229,Button0Blue,0,"{""Source1"": 0.50, ""Source2"": 0.55, ""Source3"": 0.65}",40,6,6,6,14136.5,red,1,6,1,js-scroll-button-response,3,1,1,1,50           65           55           55           55           55,blueredredblueredblue,1  0  0  1  0  1,2,0
11710229,Button0Blue,0,"{""Source1"": 0.50, ""Source2"": 0.55, ""Source3"": 0.65}",40,6,6,6,11042.3999999762,blue,0,6,0,js-scroll-button-response,5,1,1,2,50  65  50  50  65  65,blueblueredbluebluered,1  1  0  1  1  0,2,0
11710229,Button0Blue,0,"{""Source1"": 0.50, ""Source2"": 0.55, ""Source3"": 0.65}",40,6,6,6,11270.6999999881,red,1,6,1,js-scroll-button-response,7,1,1,3,65           50           55           55           50           55,redredredblueredblue,0  0  0  1  0  1,2,0
11710229,Button0Blue,0,"{""Source1"": 0.50, ""Source2"": 0.55, ""Source3"": 0.65}",40,6,6,6,11732.6999999881,red,1,6,1,js-scroll-button-response,9,1,1,4,50           50           65           55           65           65,redredblueredredred,0  0  1  0  0  0,2,0
11710229,Button0Blue,0,"{""Source1"": 0.50, ""Source2"": 0.55, ""Source3"": 0.65}",40,6,6,6,12750,blue,0,6,0,js-scroll-button-response,11,1,1,5,65           55           65           55           50           65,redblueblueredblueblue,0  1  1  0  1  1,2,0
11710229,Button0Blue,0,"{""Source1"": 0.50, ""Source2"": 0.55, ""Source3"": 0.65}",40,6,6,6,8229.5,red,1,6,1,js-scroll-button-response,13,1,1,6,65  50  50  50  65  65,redblueblueblueredred,0  1  1  1  0  0,2,0
11710229,Button0Blue,0,"{""Source1"": 0.50, ""Source2"": 0.55, ""Source3"": 0.65}",40,6,6,6,16157.1999999881,red,1,6,1,js-scroll-button-response,15,1,1,7,65           55           50           65           50           55,redblueredredbluered,0  1  0  0  1  0,2,0
11710229,Button0Blue,0,"{""Source1"": 0.50, ""Source2"": 0.55, ""Source3"": 0.65}",40,6,6,6,11710.1999999881,red,0,6,1,js-scroll-button-response,17,0,1,8,50           55           65           65           55           50,blueredblueblueredred,1  0  1  1  0  0,2,0
11710229,Button0Blue,0,"{""Source1"": 0.50, ""Source2"": 0.55, ""Source3"": 0.65}",40,6,6,6,13409.8000000119,blue,0,6,0,js-scroll-button-response,19,1,1,9,55           50           55           50           50           55,redblueblueblueblueblue,0  1  1  1  1  1,2,0
11710229,Button0Blue,0,"{""Source1"": 0.50, ""Source2"": 0.55, ""Source3"": 0.65}",40,6,6,6,7829.19999998808,blue,1,6,0,js-scroll-button-response,21,0,1,10,55           55           55           50           65           55,redredredblueredblue,0  0  0  1  0  1,2,0
11710229,Button0Blue,0,"{""Source1"": 0.50, ""Source2"": 0.55, ""Source3"": 0.65}",40,6,6,6,31662.3000000119,red,1,6,1,js-scroll-button-response,23,1,1,11,50           55           65           65           55           65,blueblueredredredblue,1  1  0  0  0  1,2,0
11710229,Button0Blue,0,"{""Source1"": 0.50, ""Source2"": 0.55, ""Source3"": 0.65}",40,6,6,6,13949.8000000119,red,1,6,1,js-scroll-button-response,25,1,1,12,50           65           55           50           65           65,redredblueblueredred,0  0  1  1  0  0,2,0
11710229,Button0Blue,0,"{""Source1"": 0.50, ""Source2"": 0.55, ""Source3"": 0.65}",40,6,6,6,9930.5,red,0,6,1,js-scroll-button-response,27,0,1,13,55           65           55           65           65           50,redblueredredbluered,0  1  0  0  1  0,2,0
11710229,Button0Blue,0,"{""Source1"": 0.50, ""Source2"": 0.55, ""Source3"": 0.65}",40,6,6,6,13083.6999999881,red,0,6,1,js-scroll-button-response,29,0,1,14,50           55           50           50           55           50,redblueblueredbluered,0  1  1  0  1  0,2,0
11710229,Button0Blue,0,"{""Source1"": 0.50, ""Source2"": 0.55, ""Source3"": 0.65}",40,6,6,6,18262.3000000119,blue,0,6,0,js-scroll-button-response,31,1,1,15,55           55           65           55           65           55,blueredbluebluebluered,1  0  1  1  1  0,2,0
11710229,Button0Blue,0,"{""Source1"": 0.50, ""Source2"": 0.55, ""Source3"": 0.65}",40,6,6,6,9153.09999996424,red,1,6,1,js-scroll-button-response,33,1,1,16,65           65           50           65           55           65,redredredblueredred,0  0  0  1  0  0,2,0
11710229,Button0Blue,0,"{""Source1"": 0.50, ""Source2"": 0.55, ""Source3"": 0.65}",40,6,6,6,40514.1999999881,blue,0,6,0,js-scroll-button-response,35,1,1,17,55           65           55           55           50           50,blueblueredblueredred,1  1  0  1  0  0,2,0
11710229,Button0Blue,0,"{""Source1"": 0.50, ""Source2"": 0.55, ""Source3"": 0.65}",40,6,6,6,7421.20000004768,red,1,6,1,js-scroll-button-response,37,1,1,18,50           55           50           55           55           55,redblueblueredredred,0  1  1  0  0  0,2,0
11710229,Button0Blue,0,"{""Source1"": 0.50, ""Source2"": 0.55, ""Source3"": 0.65}",40,6,6,6,6389.90000003576,blue,0,6,0,js-scroll-button-response,39,1,1,19,55           65           50           55           65           55,bluebluebluebluebluered,1  1  1  1  1  0,2,0
11710229,Button0Blue,0,"{""Source1"": 0.50, ""Source2"": 0.55, ""Source3"": 0.65}",40,6,6,6,7105.10000002384,red,0,6,1,js-scroll-button-response,41,0,1,20,65           55           55           50           55           65,redblueblueredredblue,0  1  1  0  0  1,2,0
11710229,Button0Blue,0,"{""Source1"": 0.50, ""Source2"": 0.55, ""Source3"": 0.65}",40,6,6,6,16078.0999999642,red,1,6,1,js-scroll-button-response,43,1,1,21,50           50           65           65           55           55,blueblueredredblueblue,1  1  0  0  1  1,2,0
11710229,Button0Blue,0,"{""Source1"": 0.50, ""Source2"": 0.55, ""Source3"": 0.65}",40,6,6,6,16927.0999999642,blue,1,6,0,js-scroll-button-response,45,0,1,22,55           65           65           65           55           50,redblueblueredredblue,0  1  1  0  0  1,2,0
11710229,Button0Blue,0,"{""Source1"": 0.50, ""Source2"": 0.55, ""Source3"": 0.65}",40,6,6,6,43337.3999999762,red,1,6,1,js-scroll-button-response,47,1,1,23,65  50  50  65  50  65,blueredredredbluered,1  0  0  0  1  0,2,0
11710229,Button0Blue,0,"{""Source1"": 0.50, ""Source2"": 0.55, ""Source3"": 0.65}",40,6,6,6,6857.60000002384,red,0,6,1,js-scroll-button-response,49,0,1,24,65           65           55           50           55           55,bluebluebluebluebluered,1  1  1  1  1  0,2,0
11710229,Button0Blue,0,"{""Source1"": 0.50, ""Source2"": 0.55, ""Source3"": 0.65}",40,6,6,6,11641.8000000119,blue,0,6,0,js-scroll-button-response,51,1,1,25,65           55           50           65           55           50,blueblueredbluebluered,1  1  0  1  1  0,2,0
11710229,Button0Blue,0,"{""Source1"": 0.50, ""Source2"": 0.55, ""Source3"": 0.65}",40,6,6,6,8070.5,red,1,6,1,js-scroll-button-response,53,1,1,26,50           65           50           55           50           55,redredredredredred,0  0  0  0  0  0,2,0
11710229,Button0Blue,0,"{""Source1"": 0.50, ""Source2"": 0.55, ""Source3"": 0.65}",40,6,6,6,16969.6000000238,blue,1,6,0,js-scroll-button-response,55,0,1,27,50           65           55           65           50           55,blueredredblueblueblue,1  0  0  1  1  1,2,0
11710229,Button0Blue,0,"{""Source1"": 0.50, ""Source2"": 0.55, ""Source3"": 0.65}",40,6,6,6,14181.6999999881,red,1,6,1,js-scroll-button-response,57,1,1,28,50           50           65           55           65           55,redblueredredredred,0  1  0  0  0  0,2,0
11710229,Button0Blue,0,"{""Source1"": 0.50, ""Source2"": 0.55, ""Source3"": 0.65}",40,6,6,6,8861.30000001192,red,1,6,1,js-scroll-button-response,59,1,1,29,50           50           65           50           55           55,blueblueredredredblue,1  1  0  0  0  1,2,0
11710229,Button0Blue,0,"{""Source1"": 0.50, ""Source2"": 0.55, ""Source3"": 0.65}",40,6,6,6,8592.69999998808,red,1,6,1,js-scroll-button-response,61,1,1,30,65           50           55           50           50           65,redredredbluebluered,0  0  0  1  1  0,2,0
11710229,Button0Blue,0,"{""Source1"": 0.50, ""Source2"": 0.55, ""Source3"": 0.65}",40,6,6,6,11500.8000000119,red,1,6,1,js-scroll-button-response,63,1,1,31,55           50           55           65           65           55,blueblueredredredred,1  1  0  0  0  0,2,0
11710229,Button0Blue,0,"{""Source1"": 0.50, ""Source2"": 0.55, ""Source3"": 0.65}",40,6,6,6,16853.2999999523,red,1,6,1,js-scroll-button-response,65,1,1,32,65           55           55           50           50           55,redblueblueredbluered,0  1  1  0  1  0,2,0
11710229,Button0Blue,0,"{""Source1"": 0.50, ""Source2"": 0.55, ""Source3"": 0.65}",40,6,6,6,10481.8000000119,blue,0,6,0,js-scroll-button-response,67,1,1,33,55           55           50           50           65           65,blueredblueblueblueblue,1  0  1  1  1  1,2,0
11710229,Button0Blue,0,"{""Source1"": 0.50, ""Source2"": 0.55, ""Source3"": 0.65}",40,6,6,6,14973.3000000119,blue,1,6,0,js-scroll-button-response,69,0,1,34,50           65           55           50           50           55,redblueredredredblue,0  1  0  0  0  1,2,0
11710229,Button0Blue,0,"{""Source1"": 0.50, ""Source2"": 0.55, ""Source3"": 0.65}",40,6,6,6,7601.5,red,1,6,1,js-scroll-button-response,71,1,1,35,55           65           55           50           65           50,redblueblueredredred,0  1  1  0  0  0,2,0
11710229,Button0Blue,0,"{""Source1"": 0.50, ""Source2"": 0.55, ""Source3"": 0.65}",40,6,6,6,12046.6000000238,blue,1,6,0,js-scroll-button-response,73,0,1,36,55           65           50           50           55           50,redredblueblueredblue,0  0  1  1  0  1,2,0
11710229,Button0Blue,0,"{""Source1"": 0.50, ""Source2"": 0.55, ""Source3"": 0.65}",40,6,6,6,9526.30000001192,blue,0,6,0,js-scroll-button-response,75,1,1,37,55           55           50           55           50           65,redblueredblueredblue,0  1  0  1  0  1,2,0
11710229,Button0Blue,0,"{""Source1"": 0.50, ""Source2"": 0.55, ""Source3"": 0.65}",40,6,6,6,11761.7999999523,red,1,6,1,js-scroll-button-response,77,1,1,38,50           55           55           55           55           65,blueredredblueredred,1  0  0  1  0  0,2,0
11710229,Button0Blue,0,"{""Source1"": 0.50, ""Source2"": 0.55, ""Source3"": 0.65}",40,6,6,6,8854.19999998808,red,1,6,1,js-scroll-button-response,79,1,1,39,55           50           65           50           55           55,blueblueredredredred,1  1  0  0  0  0,2,0
11710229,Button0Blue,0,"{""Source1"": 0.50, ""Source2"": 0.55, ""Source3"": 0.65}",40,6,6,6,7374.40000003576,red,1,6,1,js-scroll-button-response,81,1,1,40,50           50           55           50           50           65,blueredredbluebluered,1  0  0  1  1  0,2,0
11710229,Button0Blue,0,"{""Source1"": 0.50, ""Source2"": 0.55, ""Source3"": 0.65}",40,6,6,6,9813.80000001192,red,1,6,1,js-scroll-button-response,84,1,2,41,55           65           50           55           50           50,redredblueredredred,0  0  1  0  0  0,2,0
11710229,Button0Blue,0,"{""Source1"": 0.50, ""Source2"": 0.55, ""Source3"": 0.65}",40,6,6,6,17477.7999999523,red,1,6,1,js-scroll-button-response,86,1,2,42,65           55           65           50           50           55,blueblueredbluebluered,1  1  0  1  1  0,2,0
11710229,Button0Blue,0,"{""Source1"": 0.50, ""Source2"": 0.55, ""Source3"": 0.65}",40,6,6,6,9569.5,red,1,6,1,js-scroll-button-response,88,1,2,43,55           65           65           65           50           50,blueredredblueredred,1  0  0  1  0  0,2,0
11710229,Button0Blue,0,"{""Source1"": 0.50, ""Source2"": 0.55, ""Source3"": 0.65}",40,6,6,6,5392.69999998808,red,1,6,1,js-scroll-button-response,90,1,2,44,55           65           65           55           55           55,redredredredbluered,0  0  0  0  1  0,2,0
11710229,Button0Blue,0,"{""Source1"": 0.50, ""Source2"": 0.55, ""Source3"": 0.65}",40,6,6,6,8186.40000003576,red,0,6,1,js-scroll-button-response,92,0,2,45,55           50           55           50           55           55,redblueredredblueblue,0  1  0  0  1  1,2,0
11710229,Button0Blue,0,"{""Source1"": 0.50, ""Source2"": 0.55, ""Source3"": 0.65}",40,6,6,6,5829.69999998808,red,1,6,1,js-scroll-button-response,94,1,2,46,55           50           55           55           50           50,blueblueredbluebluered,1  1  0  1  1  0,2,0
11710229,Button0Blue,0,"{""Source1"": 0.50, ""Source2"": 0.55, ""Source3"": 0.65}",40,6,6,6,8634.5,red,1,6,1,js-scroll-button-response,96,1,2,47,50           65           55           55           50           50,blueredredredredblue,1  0  0  0  0  1,2,0
11710229,Button0Blue,0,"{""Source1"": 0.50, ""Source2"": 0.55, ""Source3"": 0.65}",40,6,6,6,6898.60000002384,red,0,6,1,js-scroll-button-response,98,0,2,48,50           55           65           50           50           55,redbluebluebluebluered,0  1  1  1  1  0,2,0
11710229,Button0Blue,0,"{""Source1"": 0.50, ""Source2"": 0.55, ""Source3"": 0.65}",40,6,6,6,4341.60000002384,blue,1,6,0,js-scroll-button-response,100,0,2,49,50  65  65  65  50  50,redblueblueredredblue,0  1  1  0  0  1,2,0
11710229,Button0Blue,0,"{""Source1"": 0.50, ""Source2"": 0.55, ""Source3"": 0.65}",40,6,6,6,10606.2000000477,blue,0,6,0,js-scroll-button-response,102,1,2,50,50           50           50           65           50           55,bluebluebluebluebluered,1  1  1  1  1  0,2,0
11710229,Button0Blue,0,"{""Source1"": 0.50, ""Source2"": 0.55, ""Source3"": 0.65}",40,6,6,6,48902,blue,0,6,0,js-scroll-button-response,104,1,2,51,65           55           65           65           65           65,bluebluebluebluebluered,1  1  1  1  1  0,2,0
11710229,Button0Blue,0,"{""Source1"": 0.50, ""Source2"": 0.55, ""Source3"": 0.65}",40,6,6,6,5938.5,red,1,6,1,js-scroll-button-response,106,1,2,52,50           50           50           50           65           55,blueblueredredredred,1  1  0  0  0  0,2,0
11710229,Button0Blue,0,"{""Source1"": 0.50, ""Source2"": 0.55, ""Source3"": 0.65}",40,6,6,6,9021.80000001192,red,0,6,1,js-scroll-button-response,108,0,2,53,55           65           55           55           65           65,blueblueredblueredblue,1  1  0  1  0  1,2,0
11710229,Button0Blue,0,"{""Source1"": 0.50, ""Source2"": 0.55, ""Source3"": 0.65}",40,6,6,6,6082.30000001192,blue,1,6,0,js-scroll-button-response,110,0,2,54,55           55           55           50           55           65,blueblueblueblueredred,1  1  1  1  0  0,2,0
11710229,Button0Blue,0,"{""Source1"": 0.50, ""Source2"": 0.55, ""Source3"": 0.65}",40,6,6,6,9474.29999995232,red,1,6,1,js-scroll-button-response,112,1,2,55,65           65           50           65           55           55,redblueblueredredred,0  1  1  0  0  0,2,0
11710229,Button0Blue,0,"{""Source1"": 0.50, ""Source2"": 0.55, ""Source3"": 0.65}",40,6,6,6,14117.8999999762,red,1,6,1,js-scroll-button-response,114,1,2,56,65           50           65           50           55           65,redblueblueredredred,0  1  1  0  0  0,2,0
11710229,Button0Blue,0,"{""Source1"": 0.50, ""Source2"": 0.55, ""Source3"": 0.65}",40,6,6,6,7857.40000003576,blue,0,6,0,js-scroll-button-response,116,1,2,57,65           50           50           65           55           55,blueredblueblueblueblue,1  0  1  1  1  1,2,0
11710229,Button0Blue,0,"{""Source1"": 0.50, ""Source2"": 0.55, ""Source3"": 0.65}",40,6,6,6,9662,blue,0,6,0,js-scroll-button-response,118,1,2,58,65           65           65           55           65           65,blueredredblueblueblue,1  0  0  1  1  1,2,0
11710229,Button0Blue,0,"{""Source1"": 0.50, ""Source2"": 0.55, ""Source3"": 0.65}",40,6,6,6,6389.5,blue,0,6,0,js-scroll-button-response,120,1,2,59,50  50  50  50  65  50,blueblueblueredblueblue,1  1  1  0  1  1,2,0
11710229,Button0Blue,0,"{""Source1"": 0.50, ""Source2"": 0.55, ""Source3"": 0.65}",40,6,6,6,6069.5,red,1,6,1,js-scroll-button-response,122,1,2,60,55           55           65           65           65           55,blueblueredredredred,1  1  0  0  0  0,2,0
11710229,Button0Blue,0,"{""Source1"": 0.50, ""Source2"": 0.55, ""Source3"": 0.65}",40,6,6,6,5933.59999996424,red,0,6,1,js-scroll-button-response,124,0,2,61,55           55           55           55           65           50,redblueredblueblueblue,0  1  0  1  1  1,2,0
11710229,Button0Blue,0,"{""Source1"": 0.50, ""Source2"": 0.55, ""Source3"": 0.65}",40,6,6,6,6110.19999998808,red,1,6,1,js-scroll-button-response,126,1,2,62,65           65           65           55           55           50,redredredredredblue,0  0  0  0  0  1,2,0
11710229,Button0Blue,0,"{""Source1"": 0.50, ""Source2"": 0.55, ""Source3"": 0.65}",40,6,6,6,7940.70000004768,red,1,6,1,js-scroll-button-response,128,1,2,63,50           65           55           65           65           65,blueredblueblueredred,1  0  1  1  0  0,2,0
11710229,Button0Blue,0,"{""Source1"": 0.50, ""Source2"": 0.55, ""Source3"": 0.65}",40,6,6,6,8466.09999996424,blue,0,6,0,js-scroll-button-response,130,1,2,64,55           50           65           50           50           50,redblueblueblueblueblue,0  1  1  1  1  1,2,0
11710229,Button0Blue,0,"{""Source1"": 0.50, ""Source2"": 0.55, ""Source3"": 0.65}",40,6,6,6,7538.39999997616,blue,0,6,0,js-scroll-button-response,132,1,2,65,55           55           50           50           50           50,blueblueredblueblueblue,1  1  0  1  1  1,2,0
11710229,Button0Blue,0,"{""Source1"": 0.50, ""Source2"": 0.55, ""Source3"": 0.65}",40,6,6,6,6932.5,red,1,6,1,js-scroll-button-response,134,1,2,66,65           50           50           55           65           65,blueblueredblueredred,1  1  0  1  0  0,2,0
11710229,Button0Blue,0,"{""Source1"": 0.50, ""Source2"": 0.55, ""Source3"": 0.65}",40,6,6,6,22213.6000000238,blue,1,6,0,js-scroll-button-response,136,0,2,67,55           65           55           65           50           55,blueredblueredredblue,1  0  1  0  0  1,2,0
11710229,Button0Blue,0,"{""Source1"": 0.50, ""Source2"": 0.55, ""Source3"": 0.65}",40,6,6,6,15670.6999999881,red,1,6,1,js-scroll-button-response,138,1,2,68,65           55           50           65           65           55,redredredredredblue,0  0  0  0  0  1,2,0
11710229,Button0Blue,0,"{""Source1"": 0.50, ""Source2"": 0.55, ""Source3"": 0.65}",40,6,6,6,47906.5,red,0,6,1,js-scroll-button-response,140,0,2,69,55           55           65           55           50           50,redredblueblueblueblue,0  0  1  1  1  1,2,0
11710229,Button0Blue,0,"{""Source1"": 0.50, ""Source2"": 0.55, ""Source3"": 0.65}",40,6,6,6,42629.6999999881,red,0,6,1,js-scroll-button-response,142,0,2,70,65           65           55           55           55           55,blueredblueblueredblue,1  0  1  1  0  1,2,0
11710229,Button0Blue,0,"{""Source1"": 0.50, ""Source2"": 0.55, ""Source3"": 0.65}",40,6,6,6,13126.1000000238,blue,1,6,0,js-scroll-button-response,144,0,2,71,65           55           50           55           55           55,redbluebluebluebluered,0  1  1  1  1  0,2,0
11710229,Button0Blue,0,"{""Source1"": 0.50, ""Source2"": 0.55, ""Source3"": 0.65}",40,6,6,6,8437.59999996424,red,0,6,1,js-scroll-button-response,146,0,2,72,65           55           65           65           55           55,redblueblueredbluered,0  1  1  0  1  0,2,0
11710229,Button0Blue,0,"{""Source1"": 0.50, ""Source2"": 0.55, ""Source3"": 0.65}",40,6,6,6,12530.1999999881,red,1,6,1,js-scroll-button-response,148,1,2,73,65           50           65           65           50           55,blueblueblueredredred,1  1  1  0  0  0,2,0
11710229,Button0Blue,0,"{""Source1"": 0.50, ""Source2"": 0.55, ""Source3"": 0.65}",40,6,6,6,14725.6999999881,red,1,6,1,js-scroll-button-response,150,1,2,74,50  50  50  65  65  50,redblueredblueredblue,0  1  0  1  0  1,2,0
11710229,Button0Blue,0,"{""Source1"": 0.50, ""Source2"": 0.55, ""Source3"": 0.65}",40,6,6,6,8589.30000001192,red,0,6,1,js-scroll-button-response,152,0,2,75,65           55           50           55           65           65,blueredblueblueblueblue,1  0  1  1  1  1,2,0
11710229,Button0Blue,0,"{""Source1"": 0.50, ""Source2"": 0.55, ""Source3"": 0.65}",40,6,6,6,11557.3000000119,red,0,6,1,js-scroll-button-response,154,0,2,76,50           55           50           55           55           55,blueblueblueredredblue,1  1  1  0  0  1,2,0
11710229,Button0Blue,0,"{""Source1"": 0.50, ""Source2"": 0.55, ""Source3"": 0.65}",40,6,6,6,6787,blue,0,6,0,js-scroll-button-response,156,1,2,77,55           55           55           65           65           55,blueredredblueredblue,1  0  0  1  0  1,2,0
11710229,Button0Blue,0,"{""Source1"": 0.50, ""Source2"": 0.55, ""Source3"": 0.65}",40,6,6,6,7986.19999998808,blue,1,6,0,js-scroll-button-response,158,0,2,78,65           50           55           65           65           65,redredbluebluebluered,0  0  1  1  1  0,2,0
11710229,Button0Blue,0,"{""Source1"": 0.50, ""Source2"": 0.55, ""Source3"": 0.65}",40,6,6,6,22549.7000000477,red,0,6,1,js-scroll-button-response,160,0,2,79,50           55           50           50           55           55,blueblueredblueblueblue,1  1  0  1  1  1,2,0
11710229,Button0Blue,0,"{""Source1"": 0.50, ""Source2"": 0.55, ""Source3"": 0.65}",40,6,6,6,7542.10000002384,blue,1,6,0,js-scroll-button-response,162,0,2,80,55           65           50           50           55           65,redblueredbluebluered,0  1  0  1  1  0,2,0
11710229,Button0Blue,0,"{""Source1"": 0.50, ""Source2"": 0.55, ""Source3"": 0.65}",40,6,6,6,9429,red,1,6,1,js-scroll-button-response,165,1,3,81,50           65           65           50           55           55,redredblueredbluered,0  0  1  0  1  0,2,0
11710229,Button0Blue,0,"{""Source1"": 0.50, ""Source2"": 0.55, ""Source3"": 0.65}",40,6,6,6,9270.19999998808,blue,1,6,0,js-scroll-button-response,167,0,3,82,50  65  65  65  65  50,redredredblueredred,0  0  0  1  0  0,2,0
11710229,Button0Blue,0,"{""Source1"": 0.50, ""Source2"": 0.55, ""Source3"": 0.65}",40,6,6,6,11546,blue,1,6,0,js-scroll-button-response,169,0,3,83,55           55           55           65           65           65,blueblueblueredbluered,1  1  1  0  1  0,2,0
11710229,Button0Blue,0,"{""Source1"": 0.50, ""Source2"": 0.55, ""Source3"": 0.65}",40,6,6,6,16418.6000000238,red,1,6,1,js-scroll-button-response,171,1,3,84,55           55           65           50           55           55,redblueredbluebluered,0  1  0  1  1  0,2,0
11710229,Button0Blue,0,"{""Source1"": 0.50, ""Source2"": 0.55, ""Source3"": 0.65}",40,6,6,6,14286.3000000119,red,1,6,1,js-scroll-button-response,173,1,3,85,50  50  50  50  50  65,redredblueredredred,0  0  1  0  0  0,2,0
11710229,Button0Blue,0,"{""Source1"": 0.50, ""Source2"": 0.55, ""Source3"": 0.65}",40,6,6,6,10374.8000000119,red,1,6,1,js-scroll-button-response,175,1,3,86,55           50           50           65           55           55,redredredredblueblue,0  0  0  0  1  1,2,0
11710229,Button0Blue,0,"{""Source1"": 0.50, ""Source2"": 0.55, ""Source3"": 0.65}",40,6,6,6,24605.1999999881,red,0,6,1,js-scroll-button-response,177,0,3,87,50           55           55           65           65           55,blueblueredbluebluered,1  1  0  1  1  0,2,0
11710229,Button0Blue,0,"{""Source1"": 0.50, ""Source2"": 0.55, ""Source3"": 0.65}",40,6,6,6,6274.10000002384,red,0,6,1,js-scroll-button-response,179,0,3,88,65           65           55           50           65           55,blueblueblueblueredblue,1  1  1  1  0  1,2,0
11710229,Button0Blue,0,"{""Source1"": 0.50, ""Source2"": 0.55, ""Source3"": 0.65}",40,6,6,6,6485.10000002384,red,0,6,1,js-scroll-button-response,181,0,3,89,65           50           50           50           50           55,blueblueblueblueblueblue,1  1  1  1  1  1,2,0
11710229,Button0Blue,0,"{""Source1"": 0.50, ""Source2"": 0.55, ""Source3"": 0.65}",40,6,6,6,4985.39999997616,blue,0,6,0,js-scroll-button-response,183,1,3,90,65           65           55           55           65           65,blueblueblueblueblueblue,1  1  1  1  1  1,2,0
11710229,Button0Blue,0,"{""Source1"": 0.50, ""Source2"": 0.55, ""Source3"": 0.65}",40,6,6,6,8426.89999997616,red,1,6,1,js-scroll-button-response,185,1,3,91,55           50           50           65           50           65,redredbluebluebluered,0  0  1  1  1  0,2,0
11710229,Button0Blue,0,"{""Source1"": 0.50, ""Source2"": 0.55, ""Source3"": 0.65}",40,6,6,6,7201.19999998808,red,0,6,1,js-scroll-button-response,187,0,3,92,50           50           50           55           55           65,blueredblueredredblue,1  0  1  0  0  1,2,0
11710229,Button0Blue,0,"{""Source1"": 0.50, ""Source2"": 0.55, ""Source3"": 0.65}",40,6,6,6,7070.40000003576,red,0,6,1,js-scroll-button-response,189,0,3,93,50           50           65           50           65           55,blueredredredbluered,1  0  0  0  1  0,2,0
11710229,Button0Blue,0,"{""Source1"": 0.50, ""Source2"": 0.55, ""Source3"": 0.65}",40,6,6,6,5941.39999997616,blue,0,6,0,js-scroll-button-response,191,1,3,94,65           55           65           50           55           55,blueredblueblueredred,1  0  1  1  0  0,2,0
11710229,Button0Blue,0,"{""Source1"": 0.50, ""Source2"": 0.55, ""Source3"": 0.65}",40,6,6,6,6866.60000002384,red,1,6,1,js-scroll-button-response,193,1,3,95,55           50           55           50           50           50,redredredblueredred,0  0  0  1  0  0,2,0
11710229,Button0Blue,0,"{""Source1"": 0.50, ""Source2"": 0.55, ""Source3"": 0.65}",40,6,6,6,62797.7999999523,blue,1,6,0,js-scroll-button-response,195,0,3,96,55           65           55           55           55           65,blueblueredredredred,1  1  0  0  0  0,2,0
11710229,Button0Blue,0,"{""Source1"": 0.50, ""Source2"": 0.55, ""Source3"": 0.65}",40,6,6,6,5898.19999998808,red,1,6,1,js-scroll-button-response,197,1,3,97,50           65           50           65           55           55,blueredblueredredblue,1  0  1  0  0  1,2,0
11710229,Button0Blue,0,"{""Source1"": 0.50, ""Source2"": 0.55, ""Source3"": 0.65}",40,6,6,6,7497.80000001192,blue,1,6,0,js-scroll-button-response,199,0,3,98,65           50           65           65           50           55,redblueredbluebluered,0  1  0  1  1  0,2,0
11710229,Button0Blue,0,"{""Source1"": 0.50, ""Source2"": 0.55, ""Source3"": 0.65}",40,6,6,6,6590.80000001192,blue,1,6,0,js-scroll-button-response,201,0,3,99,55           55           50           55           50           65,blueredbluebluebluered,1  0  1  1  1  0,2,0
11710229,Button0Blue,0,"{""Source1"": 0.50, ""Source2"": 0.55, ""Source3"": 0.65}",40,6,6,6,5918.10000002384,red,1,6,1,js-scroll-button-response,203,1,3,100,65           55           65           50           55           55,blueredredblueredred,1  0  0  1  0  0,2,0
11710229,Button0Blue,0,"{""Source1"": 0.50, ""Source2"": 0.55, ""Source3"": 0.65}",40,6,6,6,12114,blue,1,6,0,js-scroll-button-response,205,0,3,101,55           50           55           50           50           55,blueblueredbluebluered,1  1  0  1  1  0,2,0
11710229,Button0Blue,0,"{""Source1"": 0.50, ""Source2"": 0.55, ""Source3"": 0.65}",40,6,6,6,4722.30000001192,blue,0,6,0,js-scroll-button-response,207,1,3,102,50           65           55           65           55           50,redblueredblueblueblue,0  1  0  1  1  1,2,0
11710229,Button0Blue,0,"{""Source1"": 0.50, ""Source2"": 0.55, ""Source3"": 0.65}",40,6,6,6,5071.10000002384,red,0,6,1,js-scroll-button-response,209,0,3,103,55           65           50           50           55           55,blueblueredblueblueblue,1  1  0  1  1  1,2,0
11710229,Button0Blue,0,"{""Source1"": 0.50, ""Source2"": 0.55, ""Source3"": 0.65}",40,6,6,6,5262.20000004768,red,1,6,1,js-scroll-button-response,211,1,3,104,55           65           55           65           55           55,redblueredredredblue,0  1  0  0  0  1,2,0
11710229,Button0Blue,0,"{""Source1"": 0.50, ""Source2"": 0.55, ""Source3"": 0.65}",40,6,6,6,14121,red,1,6,1,js-scroll-button-response,213,1,3,105,50           55           65           50           55           55,redredredredredblue,0  0  0  0  0  1,2,0
11710229,Button0Blue,0,"{""Source1"": 0.50, ""Source2"": 0.55, ""Source3"": 0.65}",40,6,6,6,5737.5,red,0,6,1,js-scroll-button-response,215,0,3,106,55           65           55           65           65           65,blueblueblueredredblue,1  1  1  0  0  1,2,0
11710229,Button0Blue,0,"{""Source1"": 0.50, ""Source2"": 0.55, ""Source3"": 0.65}",40,6,6,6,4889.40000003576,red,0,6,1,js-scroll-button-response,217,0,3,107,65           55           50           55           55           55,blueredblueredblueblue,1  0  1  0  1  1,2,0
11710229,Button0Blue,0,"{""Source1"": 0.50, ""Source2"": 0.55, ""Source3"": 0.65}",40,6,6,6,4657.80000001192,red,1,6,1,js-scroll-button-response,219,1,3,108,50           65           55           65           65           55,blueredblueblueredred,1  0  1  1  0  0,2,0
11710229,Button0Blue,0,"{""Source1"": 0.50, ""Source2"": 0.55, ""Source3"": 0.65}",40,6,6,6,6249.30000001192,blue,0,6,0,js-scroll-button-response,221,1,3,109,65           65           50           65           55           65,blueblueredredblueblue,1  1  0  0  1  1,2,0
11710229,Button0Blue,0,"{""Source1"": 0.50, ""Source2"": 0.55, ""Source3"": 0.65}",40,6,6,6,5501.40000003576,blue,1,6,0,js-scroll-button-response,223,0,3,110,50           55           55           65           65           50,blueblueredblueredred,1  1  0  1  0  0,2,0
11710229,Button0Blue,0,"{""Source1"": 0.50, ""Source2"": 0.55, ""Source3"": 0.65}",40,6,6,6,6351.5,blue,0,6,0,js-scroll-button-response,225,1,3,111,50           50           55           65           50           65,redblueblueblueblueblue,0  1  1  1  1  1,2,0
11710229,Button0Blue,0,"{""Source1"": 0.50, ""Source2"": 0.55, ""Source3"": 0.65}",40,6,6,6,5282.69999998808,blue,0,6,0,js-scroll-button-response,227,1,3,112,65           55           55           50           50           50,blueblueblueblueredred,1  1  1  1  0  0,2,0
11710229,Button0Blue,0,"{""Source1"": 0.50, ""Source2"": 0.55, ""Source3"": 0.65}",40,6,6,6,5633.80000001192,red,0,6,1,js-scroll-button-response,229,0,3,113,55           65           55           55           55           65,redblueredredredblue,0  1  0  0  0  1,2,0
11710229,Button0Blue,0,"{""Source1"": 0.50, ""Source2"": 0.55, ""Source3"": 0.65}",40,6,6,6,5194.70000004768,red,0,6,1,js-scroll-button-response,231,0,3,114,55           50           65           50           55           50,redblueredbluebluered,0  1  0  1  1  0,2,0
11710229,Button0Blue,0,"{""Source1"": 0.50, ""Source2"": 0.55, ""Source3"": 0.65}",40,6,6,6,4492.80000001192,red,1,6,1,js-scroll-button-response,233,1,3,115,65           55           50           55           65           65,blueblueblueredredred,1  1  1  0  0  0,2,0
11710229,Button0Blue,0,"{""Source1"": 0.50, ""Source2"": 0.55, ""Source3"": 0.65}",40,6,6,6,4968.5,red,1,6,1,js-scroll-button-response,235,1,3,116,55           50           65           50           50           50,redredredbluebluered,0  0  0  1  1  0,2,0
11710229,Button0Blue,0,"{""Source1"": 0.50, ""Source2"": 0.55, ""Source3"": 0.65}",40,6,6,6,4446.39999997616,red,1,6,1,js-scroll-button-response,237,1,3,117,65           50           55           65           65           55,redredblueredredred,0  0  1  0  0  0,2,0
11710229,Button0Blue,0,"{""Source1"": 0.50, ""Source2"": 0.55, ""Source3"": 0.65}",40,6,6,6,5078,red,1,6,1,js-scroll-button-response,239,1,3,118,50  50  65  65  65  50,blueblueredredbluered,1  1  0  0  1  0,2,0
11710229,Button0Blue,0,"{""Source1"": 0.50, ""Source2"": 0.55, ""Source3"": 0.65}",40,6,6,6,10350.7000000477,red,0,6,1,js-scroll-button-response,241,0,3,119,50           55           50           50           50           50,redblueblueblueredred,0  1  1  1  0  0,2,0
11710229,Button0Blue,0,"{""Source1"": 0.50, ""Source2"": 0.55, ""Source3"": 0.65}",40,6,6,6,6517.5,blue,0,6,0,js-scroll-button-response,243,1,3,120,55           65           50           50           65           50,bluebluebluebluebluered,1  1  1  1  1  0,2,0
11710229,Button0Blue,0,"{""Source1"": 0.50, ""Source2"": 0.55, ""Source3"": 0.65}",40,6,6,6,8235.20000004768,red,1,6,1,js-scroll-button-response,246,1,4,121,55           65           65           65           50           50,blueredredredredred,1  0  0  0  0  0,2,0
11710229,Button0Blue,0,"{""Source1"": 0.50, ""Source2"": 0.55, ""Source3"": 0.65}",40,6,6,6,5781.19999998808,red,1,6,1,js-scroll-button-response,248,1,4,122,55           50           50           50           65           65,redredredredredblue,0  0  0  0  0  1,2,0
11710229,Button0Blue,0,"{""Source1"": 0.50, ""Source2"": 0.55, ""Source3"": 0.65}",40,6,6,6,9773.59999996424,red,0,6,1,js-scroll-button-response,250,0,4,123,65           50           55           55           65           55,redredredredbluered,0  0  0  0  1  0,2,0
11710229,Button0Blue,0,"{""Source1"": 0.50, ""Source2"": 0.55, ""Source3"": 0.65}",40,6,6,6,5878.30000001192,red,1,6,1,js-scroll-button-response,252,1,4,124,55           50           50           50           50           55,blueredredblueredred,1  0  0  1  0  0,2,0
11710229,Button0Blue,0,"{""Source1"": 0.50, ""Source2"": 0.55, ""Source3"": 0.65}",40,6,6,6,10086.4000000358,red,0,6,1,js-scroll-button-response,254,0,4,125,50           55           50           55           50           55,redredredblueblueblue,0  0  0  1  1  1,2,0
11710229,Button0Blue,0,"{""Source1"": 0.50, ""Source2"": 0.55, ""Source3"": 0.65}",40,6,6,6,5593.90000003576,red,1,6,1,js-scroll-button-response,256,1,4,126,50           65           65           55           65           55,redblueredblueredblue,0  1  0  1  0  1,2,0
11710229,Button0Blue,0,"{""Source1"": 0.50, ""Source2"": 0.55, ""Source3"": 0.65}",40,6,6,6,6374.30000001192,red,1,6,1,js-scroll-button-response,258,1,4,127,50  65  65  50  65  65,blueblueredblueredred,1  1  0  1  0  0,2,0
11710229,Button0Blue,0,"{""Source1"": 0.50, ""Source2"": 0.55, ""Source3"": 0.65}",40,6,6,6,5429,red,1,6,1,js-scroll-button-response,260,1,4,128,65           50           65           65           55           50,redredredredredblue,0  0  0  0  0  1,2,0
11710229,Button0Blue,0,"{""Source1"": 0.50, ""Source2"": 0.55, ""Source3"": 0.65}",40,6,6,6,5109.10000002384,blue,1,6,0,js-scroll-button-response,262,0,4,129,50           55           65           50           65           55,redredredblueredred,0  0  0  1  0  0,2,0
11710229,Button0Blue,0,"{""Source1"": 0.50, ""Source2"": 0.55, ""Source3"": 0.65}",40,6,6,6,4953.39999997616,blue,1,6,0,js-scroll-button-response,264,0,4,130,65           55           55           50           55           50,redblueredredblueblue,0  1  0  0  1  1,2,0
11710229,Button0Blue,0,"{""Source1"": 0.50, ""Source2"": 0.55, ""Source3"": 0.65}",40,6,6,6,4974.19999998808,blue,1,6,0,js-scroll-button-response,266,0,4,131,50           50           50           55           65           55,redredblueblueredred,0  0  1  1  0  0,2,0
11710229,Button0Blue,0,"{""Source1"": 0.50, ""Source2"": 0.55, ""Source3"": 0.65}",40,6,6,6,4538.60000002384,red,1,6,1,js-scroll-button-response,268,1,4,132,50  65  65  50  65  50,blueredredblueredred,1  0  0  1  0  0,2,0
11710229,Button0Blue,0,"{""Source1"": 0.50, ""Source2"": 0.55, ""Source3"": 0.65}",40,6,6,6,6042.39999997616,blue,1,6,0,js-scroll-button-response,270,0,4,133,50           50           55           50           55           65,blueblueredblueredred,1  1  0  1  0  0,2,0
11710229,Button0Blue,0,"{""Source1"": 0.50, ""Source2"": 0.55, ""Source3"": 0.65}",40,6,6,6,4982.90000003576,red,0,6,1,js-scroll-button-response,272,0,4,134,55           50           50           65           55           65,blueredredblueredblue,1  0  0  1  0  1,2,0
11710229,Button0Blue,0,"{""Source1"": 0.50, ""Source2"": 0.55, ""Source3"": 0.65}",40,6,6,6,5314.5,red,0,6,1,js-scroll-button-response,274,0,4,135,55           65           50           50           55           55,redredblueblueredblue,0  0  1  1  0  1,2,0
11710229,Button0Blue,0,"{""Source1"": 0.50, ""Source2"": 0.55, ""Source3"": 0.65}",40,6,6,6,5553,red,1,6,1,js-scroll-button-response,276,1,4,136,50           65           50           65           55           55,blueredblueredblueblue,1  0  1  0  1  1,2,0
11710229,Button0Blue,0,"{""Source1"": 0.50, ""Source2"": 0.55, ""Source3"": 0.65}",40,6,6,6,5694.80000001192,blue,0,6,0,js-scroll-button-response,278,1,4,137,65           55           55           50           65           50,blueblueredredblueblue,1  1  0  0  1  1,2,0
11710229,Button0Blue,0,"{""Source1"": 0.50, ""Source2"": 0.55, ""Source3"": 0.65}",40,6,6,6,4921.20000004768,red,1,6,1,js-scroll-button-response,280,1,4,138,55           65           50           50           65           65,redblueblueredredred,0  1  1  0  0  0,2,0
11710229,Button0Blue,0,"{""Source1"": 0.50, ""Source2"": 0.55, ""Source3"": 0.65}",40,6,6,6,4761.30000001192,blue,0,6,0,js-scroll-button-response,282,1,4,139,65           55           55           50           55           50,blueblueblueredblueblue,1  1  1  0  1  1,2,0
11710229,Button0Blue,0,"{""Source1"": 0.50, ""Source2"": 0.55, ""Source3"": 0.65}",40,6,6,6,4708.29999995232,blue,0,6,0,js-scroll-button-response,284,1,4,140,55           65           50           65           65           65,blueblueblueblueblueblue,1  1  1  1  1  1,2,0
11710229,Button0Blue,0,"{""Source1"": 0.50, ""Source2"": 0.55, ""Source3"": 0.65}",40,6,6,6,4702,red,0,6,1,js-scroll-button-response,286,0,4,141,55           50           65           50           50           55,redredredblueblueblue,0  0  0  1  1  1,2,0
