ParticipantPrivateID,randomiser_475f,ResponseButtonOrder,Sources,Trials_perBlock_,Blocks,MinimumSamples,MaximumSamples,RT,Stimulus,Response,NoOfStimuli,CorrectResponse,TrialType,TrialIndex,Accuracy,Block,TrialNumber,Sample_Reliability,Sample_Color,Sample_NumColor,Prior_Belief,Awareness
11696594,Button0Red,1,"{""Source1"": 0.50, ""Source2"": 0.55, ""Source3"": 0.65}",40,6,6,6,50476.8000011444,red,0,6,0,js-scroll-button-response,3,1,1,1,50           65           65           55           65           55,redredredredredblue,1  1  1  1  1  0,2,1
11696594,Button0Red,1,"{""Source1"": 0.50, ""Source2"": 0.55, ""Source3"": 0.65}",40,6,6,6,27414.5999984741,blue,1,6,1,js-scroll-button-response,5,1,1,2,65  50  65  65  50  50,blueblueblueredbluered,0  0  0  1  0  1,2,1
11696594,Button0Red,1,"{""Source1"": 0.50, ""Source2"": 0.55, ""Source3"": 0.65}",40,6,6,6,16627.8999996185,blue,0,6,1,js-scroll-button-response,7,0,1,3,65           65           50           55           55           50,redredblueredredred,1  1  0  1  1  1,2,1
11696594,Button0Red,1,"{""Source1"": 0.50, ""Source2"": 0.55, ""Source3"": 0.65}",40,6,6,6,31523,red,0,6,0,js-scroll-button-response,9,1,1,4,55           50           65           65           65           65,redblueredredredred,1  0  1  1  1  1,2,1
11696594,Button0Red,1,"{""Source1"": 0.50, ""Source2"": 0.55, ""Source3"": 0.65}",40,6,6,6,12469,red,0,6,0,js-scroll-button-response,11,1,1,5,65  50  65  50  50  65,redredredblueredred,1  1  1  0  1  1,2,1
11696594,Button0Red,1,"{""Source1"": 0.50, ""Source2"": 0.55, ""Source3"": 0.65}",40,6,6,6,9261.09999847412,red,0,6,0,js-scroll-button-response,13,1,1,6,65           50           50           65           55           65,redredblueredbluered,1  1  0  1  0  1,2,1
11696594,Button0Red,1,"{""Source1"": 0.50, ""Source2"": 0.55, ""Source3"": 0.65}",40,6,6,6,11212,red,0,6,0,js-scroll-button-response,15,1,1,7,65           50           65           55           55           65,redblueredredbluered,1  0  1  1  0  1,2,1
11696594,Button0Red,1,"{""Source1"": 0.50, ""Source2"": 0.55, ""Source3"": 0.65}",40,6,6,6,133667.700000763,red,0,6,0,js-scroll-button-response,17,1,1,8,50           65           55           55           65           55,redblueblueredredred,1  0  0  1  1  1,2,1
11696594,Button0Red,1,"{""Source1"": 0.50, ""Source2"": 0.55, ""Source3"": 0.65}",40,6,6,6,22408.8999996185,blue,1,6,1,js-scroll-button-response,19,1,1,9,65           65           65           55           50           65,blueredblueblueblueblue,0  1  0  0  0  0,2,1
11696594,Button0Red,1,"{""Source1"": 0.50, ""Source2"": 0.55, ""Source3"": 0.65}",40,6,6,6,30630.1000003815,blue,1,6,1,js-scroll-button-response,21,1,1,10,55           50           55           65           55           55,blueredredblueblueblue,0  1  1  0  0  0,2,1
11696594,Button0Red,1,"{""Source1"": 0.50, ""Source2"": 0.55, ""Source3"": 0.65}",40,6,6,6,16500.5,red,0,6,0,js-scroll-button-response,23,1,1,11,65           65           65           50           65           55,redredredredredred,1  1  1  1  1  1,2,1
11696594,Button0Red,1,"{""Source1"": 0.50, ""Source2"": 0.55, ""Source3"": 0.65}",40,6,6,6,27270,red,0,6,0,js-scroll-button-response,25,1,1,12,50           50           50           55           50           50,blueredblueredbluered,0  1  0  1  0  1,2,1
11696594,Button0Red,1,"{""Source1"": 0.50, ""Source2"": 0.55, ""Source3"": 0.65}",40,6,6,6,13262,red,0,6,0,js-scroll-button-response,27,1,1,13,65           55           50           65           55           50,redredblueblueredred,1  1  0  0  1  1,2,1
11696594,Button0Red,1,"{""Source1"": 0.50, ""Source2"": 0.55, ""Source3"": 0.65}",40,6,6,6,29149,red,1,6,0,js-scroll-button-response,29,0,1,14,50           55           55           50           65           55,redblueredblueblueblue,1  0  1  0  0  0,2,1
11696594,Button0Red,1,"{""Source1"": 0.50, ""Source2"": 0.55, ""Source3"": 0.65}",40,6,6,6,39314.5,red,0,6,0,js-scroll-button-response,31,1,1,15,65           65           50           55           55           55,redredblueredblueblue,1  1  0  1  0  0,2,1
11696594,Button0Red,1,"{""Source1"": 0.50, ""Source2"": 0.55, ""Source3"": 0.65}",40,6,6,6,12068.7999992371,red,0,6,0,js-scroll-button-response,33,1,1,16,50           65           50           55           55           65,redredblueredbluered,1  1  0  1  0  1,2,1
11696594,Button0Red,1,"{""Source1"": 0.50, ""Source2"": 0.55, ""Source3"": 0.65}",40,6,6,6,13733.1000003815,blue,1,6,1,js-scroll-button-response,35,1,1,17,55           55           55           50           65           65,blueredredredblueblue,0  1  1  1  0  0,2,1
11696594,Button0Red,1,"{""Source1"": 0.50, ""Source2"": 0.55, ""Source3"": 0.65}",40,6,6,6,18413,red,0,6,0,js-scroll-button-response,37,1,1,18,50           55           55           55           55           65,redblueredredredred,1  0  1  1  1  1,2,1
11696594,Button0Red,1,"{""Source1"": 0.50, ""Source2"": 0.55, ""Source3"": 0.65}",40,6,6,6,63829.1999988556,blue,0,6,1,js-scroll-button-response,39,0,1,19,65           55           50           55           65           50,blueblueblueredredred,0  0  0  1  1  1,2,1
11696594,Button0Red,1,"{""Source1"": 0.50, ""Source2"": 0.55, ""Source3"": 0.65}",40,6,6,6,80226.2000007629,blue,0,6,1,js-scroll-button-response,41,0,1,20,65           50           65           50           50           55,redblueredbluebluered,1  0  1  0  0  1,2,1
11696594,Button0Red,1,"{""Source1"": 0.50, ""Source2"": 0.55, ""Source3"": 0.65}",40,6,6,6,41607.5,red,0,6,0,js-scroll-button-response,43,1,1,21,65           65           65           50           50           55,redredblueblueredblue,1  1  0  0  1  0,2,1
11696594,Button0Red,1,"{""Source1"": 0.50, ""Source2"": 0.55, ""Source3"": 0.65}",40,6,6,6,39571.7000007629,red,1,6,0,js-scroll-button-response,45,0,1,22,65           55           55           55           65           65,blueblueblueblueredred,0  0  0  0  1  1,2,1
11696594,Button0Red,1,"{""Source1"": 0.50, ""Source2"": 0.55, ""Source3"": 0.65}",40,6,6,6,90268.8999996185,red,0,6,0,js-scroll-button-response,47,1,1,23,55           55           50           50           55           65,blueblueredredredred,0  0  1  1  1  1,2,1
11696594,Button0Red,1,"{""Source1"": 0.50, ""Source2"": 0.55, ""Source3"": 0.65}",40,6,6,6,68857.6000003815,red,0,6,0,js-scroll-button-response,49,1,1,24,55           50           55           55           50           65,blueredredblueredblue,0  1  1  0  1  0,2,1
11696594,Button0Red,1,"{""Source1"": 0.50, ""Source2"": 0.55, ""Source3"": 0.65}",40,6,6,6,19458.0999984741,blue,1,6,1,js-scroll-button-response,51,1,1,25,55           50           50           55           55           50,blueredredblueblueblue,0  1  1  0  0  0,2,1
11696594,Button0Red,1,"{""Source1"": 0.50, ""Source2"": 0.55, ""Source3"": 0.65}",40,6,6,6,31349.6999988556,blue,0,6,1,js-scroll-button-response,53,0,1,26,50           65           50           55           65           50,redblueblueredredblue,1  0  0  1  1  0,2,1
11696594,Button0Red,1,"{""Source1"": 0.50, ""Source2"": 0.55, ""Source3"": 0.65}",40,6,6,6,71366.1000003815,red,0,6,0,js-scroll-button-response,55,1,1,27,50           55           50           50           55           65,redblueredbluebluered,1  0  1  0  0  1,2,1
11696594,Button0Red,1,"{""Source1"": 0.50, ""Source2"": 0.55, ""Source3"": 0.65}",40,6,6,6,41134.1000003815,red,1,6,0,js-scroll-button-response,57,0,1,28,65           50           65           65           65           55,redblueblueredblueblue,1  0  0  1  0  0,2,1
11696594,Button0Red,1,"{""Source1"": 0.50, ""Source2"": 0.55, ""Source3"": 0.65}",40,6,6,6,68997.5,red,1,6,0,js-scroll-button-response,59,0,1,29,50           65           55           50           50           55,blueredblueredblueblue,0  1  0  1  0  0,2,1
11696594,Button0Red,1,"{""Source1"": 0.50, ""Source2"": 0.55, ""Source3"": 0.65}",40,6,6,6,14349.9000015259,red,0,6,0,js-scroll-button-response,61,1,1,30,55           55           55           65           50           55,blueblueblueredblueblue,0  0  0  1  0  0,2,1
11696594,Button0Red,1,"{""Source1"": 0.50, ""Source2"": 0.55, ""Source3"": 0.65}",40,6,6,6,9173.29999923706,red,0,6,0,js-scroll-button-response,63,1,1,31,65           50           55           65           55           55,redblueredredblueblue,1  0  1  1  0  0,2,1
11696594,Button0Red,1,"{""Source1"": 0.50, ""Source2"": 0.55, ""Source3"": 0.65}",40,6,6,6,23621.6999988556,blue,1,6,1,js-scroll-button-response,65,1,1,32,50           65           50           55           50           65,redbluebluebluebluered,1  0  0  0  0  1,2,1
11696594,Button0Red,1,"{""Source1"": 0.50, ""Source2"": 0.55, ""Source3"": 0.65}",40,6,6,6,9595.10000038147,red,0,6,0,js-scroll-button-response,67,1,1,33,65           65           55           65           65           50,blueredblueredredblue,0  1  0  1  1  0,2,1
11696594,Button0Red,1,"{""Source1"": 0.50, ""Source2"": 0.55, ""Source3"": 0.65}",40,6,6,6,10693,blue,1,6,1,js-scroll-button-response,69,1,1,34,65           65           55           50           65           55,blueblueblueblueredblue,0  0  0  0  1  0,2,1
11696594,Button0Red,1,"{""Source1"": 0.50, ""Source2"": 0.55, ""Source3"": 0.65}",40,6,6,6,20172.6000003815,blue,1,6,1,js-scroll-button-response,71,1,1,35,55           55           65           50           65           65,blueblueredredblueblue,0  0  1  1  0  0,2,1
11696594,Button0Red,1,"{""Source1"": 0.50, ""Source2"": 0.55, ""Source3"": 0.65}",40,6,6,6,9692.19999885559,red,0,6,0,js-scroll-button-response,73,1,1,36,50           65           65           55           55           55,redredredredredblue,1  1  1  1  1  0,2,1
11696594,Button0Red,1,"{""Source1"": 0.50, ""Source2"": 0.55, ""Source3"": 0.65}",40,6,6,6,7669.30000114441,red,0,6,0,js-scroll-button-response,75,1,1,37,50  50  50  50  65  65,blueredblueredredred,0  1  0  1  1  1,2,1
11696594,Button0Red,1,"{""Source1"": 0.50, ""Source2"": 0.55, ""Source3"": 0.65}",40,6,6,6,12613,blue,1,6,1,js-scroll-button-response,77,1,1,38,50           65           55           50           55           55,redblueblueredredblue,1  0  0  1  1  0,2,1
11696594,Button0Red,1,"{""Source1"": 0.50, ""Source2"": 0.55, ""Source3"": 0.65}",40,6,6,6,23549.3999996185,red,0,6,0,js-scroll-button-response,79,1,1,39,65           65           65           65           50           55,blueredblueredbluered,0  1  0  1  0  1,2,1
11696594,Button0Red,1,"{""Source1"": 0.50, ""Source2"": 0.55, ""Source3"": 0.65}",40,6,6,6,12699.5999984741,blue,1,6,1,js-scroll-button-response,81,1,1,40,65           65           55           50           50           55,blueblueredredredred,0  0  1  1  1  1,2,1
11696594,Button0Red,1,"{""Source1"": 0.50, ""Source2"": 0.55, ""Source3"": 0.65}",40,6,6,6,7514.30000114441,red,0,6,0,js-scroll-button-response,84,1,2,41,50           55           65           65           50           65,blueblueredredbluered,0  0  1  1  0  1,2,1
11696594,Button0Red,1,"{""Source1"": 0.50, ""Source2"": 0.55, ""Source3"": 0.65}",40,6,6,6,12493.3000011444,red,0,6,0,js-scroll-button-response,86,1,2,42,50           65           65           55           65           50,blueredblueredredblue,0  1  0  1  1  0,2,1
11696594,Button0Red,1,"{""Source1"": 0.50, ""Source2"": 0.55, ""Source3"": 0.65}",40,6,6,6,19221.2999992371,blue,0,6,1,js-scroll-button-response,88,0,2,43,50           55           50           55           55           50,redredblueredbluered,1  1  0  1  0  1,2,1
11696594,Button0Red,1,"{""Source1"": 0.50, ""Source2"": 0.55, ""Source3"": 0.65}",40,6,6,6,13075.3999996185,blue,0,6,1,js-scroll-button-response,90,0,2,44,55           50           50           55           55           65,redblueredblueredred,1  0  1  0  1  1,2,1
11696594,Button0Red,1,"{""Source1"": 0.50, ""Source2"": 0.55, ""Source3"": 0.65}",40,6,6,6,47949.3999996185,blue,0,6,1,js-scroll-button-response,92,0,2,45,50           55           50           50           55           50,blueredblueblueredblue,0  1  0  0  1  0,2,1
11696594,Button0Red,1,"{""Source1"": 0.50, ""Source2"": 0.55, ""Source3"": 0.65}",40,6,6,6,24259.7000007629,red,0,6,0,js-scroll-button-response,94,1,2,46,55           65           55           55           50           50,blueredredredblueblue,0  1  1  1  0  0,2,1
11696594,Button0Red,1,"{""Source1"": 0.50, ""Source2"": 0.55, ""Source3"": 0.65}",40,6,6,6,14016.5,red,0,6,0,js-scroll-button-response,96,1,2,47,50           65           65           50           50           55,blueblueredredredred,0  0  1  1  1  1,2,1
11696594,Button0Red,1,"{""Source1"": 0.50, ""Source2"": 0.55, ""Source3"": 0.65}",40,6,6,6,9952.30000114441,blue,0,6,1,js-scroll-button-response,98,0,2,48,50           65           50           55           50           65,blueblueredredredred,0  0  1  1  1  1,2,1
11696594,Button0Red,1,"{""Source1"": 0.50, ""Source2"": 0.55, ""Source3"": 0.65}",40,6,6,6,65616,red,0,6,0,js-scroll-button-response,100,1,2,49,55           65           50           65           50           65,redredblueredredblue,1  1  0  1  1  0,2,1
11696594,Button0Red,1,"{""Source1"": 0.50, ""Source2"": 0.55, ""Source3"": 0.65}",40,6,6,6,22107.3999996185,blue,0,6,1,js-scroll-button-response,102,0,2,50,50           65           65           65           55           55,redredblueredbluered,1  1  0  1  0  1,2,1
11696594,Button0Red,1,"{""Source1"": 0.50, ""Source2"": 0.55, ""Source3"": 0.65}",40,6,6,6,76016.8000011444,red,1,6,0,js-scroll-button-response,104,0,2,51,65           65           50           65           55           65,redredblueredblueblue,1  1  0  1  0  0,2,1
11696594,Button0Red,1,"{""Source1"": 0.50, ""Source2"": 0.55, ""Source3"": 0.65}",40,6,6,6,92120.3999996185,red,0,6,0,js-scroll-button-response,106,1,2,52,55           65           55           65           65           65,blueredredredbluered,0  1  1  1  0  1,2,1
11696594,Button0Red,1,"{""Source1"": 0.50, ""Source2"": 0.55, ""Source3"": 0.65}",40,6,6,6,22749.1999988556,red,1,6,0,js-scroll-button-response,108,0,2,53,50           50           50           50           50           55,blueredredredblueblue,0  1  1  1  0  0,2,1
11696594,Button0Red,1,"{""Source1"": 0.50, ""Source2"": 0.55, ""Source3"": 0.65}",40,6,6,6,9482.90000152588,red,1,6,0,js-scroll-button-response,110,0,2,54,50           55           55           55           50           50,blueblueblueblueblueblue,0  0  0  0  0  0,2,1
11696594,Button0Red,1,"{""Source1"": 0.50, ""Source2"": 0.55, ""Source3"": 0.65}",40,6,6,6,13075.2000007629,red,0,6,0,js-scroll-button-response,112,1,2,55,55           65           50           50           65           65,blueredblueblueredred,0  1  0  0  1  1,2,1
11696594,Button0Red,1,"{""Source1"": 0.50, ""Source2"": 0.55, ""Source3"": 0.65}",40,6,6,6,11797.1000003815,red,0,6,0,js-scroll-button-response,114,1,2,56,55           65           50           65           65           55,blueredblueredredred,0  1  0  1  1  1,2,1
11696594,Button0Red,1,"{""Source1"": 0.50, ""Source2"": 0.55, ""Source3"": 0.65}",40,6,6,6,18613.1000003815,blue,1,6,1,js-scroll-button-response,116,1,2,57,55           55           65           50           65           55,blueredblueblueredblue,0  1  0  0  1  0,2,1
11696594,Button0Red,1,"{""Source1"": 0.50, ""Source2"": 0.55, ""Source3"": 0.65}",40,6,6,6,6836,red,0,6,0,js-scroll-button-response,118,1,2,58,65           65           55           65           65           65,redblueredredredblue,1  0  1  1  1  0,2,1
11696594,Button0Red,1,"{""Source1"": 0.50, ""Source2"": 0.55, ""Source3"": 0.65}",40,6,6,6,7051.5,red,0,6,0,js-scroll-button-response,120,1,2,59,55           65           50           50           65           50,blueredredredredblue,0  1  1  1  1  0,2,1
11696594,Button0Red,1,"{""Source1"": 0.50, ""Source2"": 0.55, ""Source3"": 0.65}",40,6,6,6,24122.3999996185,blue,0,6,1,js-scroll-button-response,122,0,2,60,55           50           55           55           55           65,blueredredbluebluered,0  1  1  0  0  1,2,1
11696594,Button0Red,1,"{""Source1"": 0.50, ""Source2"": 0.55, ""Source3"": 0.65}",40,6,6,6,7784.10000038147,red,0,6,0,js-scroll-button-response,124,1,2,61,50           65           65           55           55           50,blueredredblueredblue,0  1  1  0  1  0,2,1
11696594,Button0Red,1,"{""Source1"": 0.50, ""Source2"": 0.55, ""Source3"": 0.65}",40,6,6,6,7655.80000114441,red,0,6,0,js-scroll-button-response,126,1,2,62,65           50           55           50           50           65,redredredblueredred,1  1  1  0  1  1,2,1
11696594,Button0Red,1,"{""Source1"": 0.50, ""Source2"": 0.55, ""Source3"": 0.65}",40,6,6,6,12414.6000003815,red,1,6,0,js-scroll-button-response,128,0,2,63,55           55           50           50           65           50,blueredblueredblueblue,0  1  0  1  0  0,2,1
11696594,Button0Red,1,"{""Source1"": 0.50, ""Source2"": 0.55, ""Source3"": 0.65}",40,6,6,6,24509.3999996185,blue,1,6,1,js-scroll-button-response,130,1,2,64,55           50           65           55           50           50,blueredbluebluebluered,0  1  0  0  0  1,2,1
11696594,Button0Red,1,"{""Source1"": 0.50, ""Source2"": 0.55, ""Source3"": 0.65}",40,6,6,6,9172,red,0,6,0,js-scroll-button-response,132,1,2,65,50           65           65           55           65           55,redblueredredredblue,1  0  1  1  1  0,2,1
11696594,Button0Red,1,"{""Source1"": 0.50, ""Source2"": 0.55, ""Source3"": 0.65}",40,6,6,6,11237.3000011444,blue,1,6,1,js-scroll-button-response,134,1,2,66,65           55           55           65           65           50,blueredblueblueredred,0  1  0  0  1  1,2,1
11696594,Button0Red,1,"{""Source1"": 0.50, ""Source2"": 0.55, ""Source3"": 0.65}",40,6,6,6,8196.10000038147,blue,1,6,1,js-scroll-button-response,136,1,2,67,65           65           55           55           55           55,blueredblueredbluered,0  1  0  1  0  1,2,1
11696594,Button0Red,1,"{""Source1"": 0.50, ""Source2"": 0.55, ""Source3"": 0.65}",40,6,6,6,20942.4000015259,red,0,6,0,js-scroll-button-response,138,1,2,68,65           50           55           65           50           55,redblueredblueredred,1  0  1  0  1  1,2,1
11696594,Button0Red,1,"{""Source1"": 0.50, ""Source2"": 0.55, ""Source3"": 0.65}",40,6,6,6,10210.2000007629,red,0,6,0,js-scroll-button-response,140,1,2,69,65           55           55           55           65           65,blueblueredredredred,0  0  1  1  1  1,2,1
11696594,Button0Red,1,"{""Source1"": 0.50, ""Source2"": 0.55, ""Source3"": 0.65}",40,6,6,6,6612.89999961853,red,0,6,0,js-scroll-button-response,142,1,2,70,65           65           55           55           55           50,redredredredredred,1  1  1  1  1  1,2,1
11696594,Button0Red,1,"{""Source1"": 0.50, ""Source2"": 0.55, ""Source3"": 0.65}",40,6,6,6,14629.7000007629,blue,0,6,1,js-scroll-button-response,144,0,2,71,50           50           55           55           65           50,redredblueredredblue,1  1  0  1  1  0,2,1
11696594,Button0Red,1,"{""Source1"": 0.50, ""Source2"": 0.55, ""Source3"": 0.65}",40,6,6,6,11613.3999996185,red,0,6,0,js-scroll-button-response,146,1,2,72,55           50           55           65           55           55,redredredblueredred,1  1  1  0  1  1,2,1
11696594,Button0Red,1,"{""Source1"": 0.50, ""Source2"": 0.55, ""Source3"": 0.65}",40,6,6,6,10196.8000011444,blue,1,6,1,js-scroll-button-response,148,1,2,73,55           65           50           50           50           50,redblueredblueblueblue,1  0  1  0  0  0,2,1
11696594,Button0Red,1,"{""Source1"": 0.50, ""Source2"": 0.55, ""Source3"": 0.65}",40,6,6,6,6308.70000076294,red,0,6,0,js-scroll-button-response,150,1,2,74,65           50           55           65           50           55,redredredredredred,1  1  1  1  1  1,2,1
11696594,Button0Red,1,"{""Source1"": 0.50, ""Source2"": 0.55, ""Source3"": 0.65}",40,6,6,6,27422,blue,1,6,1,js-scroll-button-response,152,1,2,75,55           65           50           55           50           65,redblueblueredblueblue,1  0  0  1  0  0,2,1
11696594,Button0Red,1,"{""Source1"": 0.50, ""Source2"": 0.55, ""Source3"": 0.65}",40,6,6,6,7076.60000038147,red,0,6,0,js-scroll-button-response,154,1,2,76,50           55           50           65           65           65,blueblueblueredredred,0  0  0  1  1  1,2,1
11696594,Button0Red,1,"{""Source1"": 0.50, ""Source2"": 0.55, ""Source3"": 0.65}",40,6,6,6,10068.6000003815,red,1,6,0,js-scroll-button-response,156,0,2,77,65           65           50           55           50           55,blueredredbluebluered,0  1  1  0  0  1,2,1
11696594,Button0Red,1,"{""Source1"": 0.50, ""Source2"": 0.55, ""Source3"": 0.65}",40,6,6,6,15186.8999996185,blue,1,6,1,js-scroll-button-response,158,1,2,78,55           65           65           65           65           65,blueblueredblueblueblue,0  0  1  0  0  0,2,1
11696594,Button0Red,1,"{""Source1"": 0.50, ""Source2"": 0.55, ""Source3"": 0.65}",40,6,6,6,6572.09999847412,red,1,6,0,js-scroll-button-response,160,0,2,79,50           50           65           50           55           55,blueredblueblueblueblue,0  1  0  0  0  0,2,1
11696594,Button0Red,1,"{""Source1"": 0.50, ""Source2"": 0.55, ""Source3"": 0.65}",40,6,6,6,9108.29999923706,red,0,6,0,js-scroll-button-response,162,1,2,80,55           65           55           50           55           50,redblueblueredredred,1  0  0  1  1  1,2,1
11696594,Button0Red,1,"{""Source1"": 0.50, ""Source2"": 0.55, ""Source3"": 0.65}",40,6,6,6,21434.8999996185,red,1,6,0,js-scroll-button-response,165,0,3,81,50           55           50           50           50           50,redblueredblueredblue,1  0  1  0  1  0,2,1
11696594,Button0Red,1,"{""Source1"": 0.50, ""Source2"": 0.55, ""Source3"": 0.65}",40,6,6,6,11996.7999992371,blue,1,6,1,js-scroll-button-response,167,1,3,82,50           50           55           55           55           50,blueredredblueblueblue,0  1  1  0  0  0,2,1
11696594,Button0Red,1,"{""Source1"": 0.50, ""Source2"": 0.55, ""Source3"": 0.65}",40,6,6,6,8938.89999961853,red,1,6,0,js-scroll-button-response,169,0,3,83,50  50  50  65  50  50,blueblueredbluebluered,0  0  1  0  0  1,2,1
11696594,Button0Red,1,"{""Source1"": 0.50, ""Source2"": 0.55, ""Source3"": 0.65}",40,6,6,6,9771,blue,0,6,1,js-scroll-button-response,171,0,3,84,65           55           50           55           55           50,redredredredredred,1  1  1  1  1  1,2,1
11696594,Button0Red,1,"{""Source1"": 0.50, ""Source2"": 0.55, ""Source3"": 0.65}",40,6,6,6,16348.5,blue,1,6,1,js-scroll-button-response,173,1,3,85,50           50           65           55           65           55,blueredblueredbluered,0  1  0  1  0  1,2,1
11696594,Button0Red,1,"{""Source1"": 0.50, ""Source2"": 0.55, ""Source3"": 0.65}",40,6,6,6,8037.29999923706,blue,0,6,1,js-scroll-button-response,175,0,3,86,50           65           50           55           50           65,blueredredblueredred,0  1  1  0  1  1,2,1
11696594,Button0Red,1,"{""Source1"": 0.50, ""Source2"": 0.55, ""Source3"": 0.65}",40,6,6,6,8693.30000114441,red,0,6,0,js-scroll-button-response,177,1,3,87,55           55           65           55           55           55,redredredblueredred,1  1  1  0  1  1,2,1
11696594,Button0Red,1,"{""Source1"": 0.50, ""Source2"": 0.55, ""Source3"": 0.65}",40,6,6,6,5828.79999923706,red,0,6,0,js-scroll-button-response,179,1,3,88,65           55           65           50           55           65,redredblueblueredred,1  1  0  0  1  1,2,1
11696594,Button0Red,1,"{""Source1"": 0.50, ""Source2"": 0.55, ""Source3"": 0.65}",40,6,6,6,19149.3999996185,red,0,6,0,js-scroll-button-response,181,1,3,89,50           50           55           50           55           65,redblueredredbluered,1  0  1  1  0  1,2,1
11696594,Button0Red,1,"{""Source1"": 0.50, ""Source2"": 0.55, ""Source3"": 0.65}",40,6,6,6,12460.9000015259,red,0,6,0,js-scroll-button-response,183,1,3,90,55           65           55           65           55           50,redredredblueblueblue,1  1  1  0  0  0,2,1
11696594,Button0Red,1,"{""Source1"": 0.50, ""Source2"": 0.55, ""Source3"": 0.65}",40,6,6,6,6724.90000152588,red,0,6,0,js-scroll-button-response,185,1,3,91,50           55           65           50           50           65,redblueredbluebluered,1  0  1  0  0  1,2,1
11696594,Button0Red,1,"{""Source1"": 0.50, ""Source2"": 0.55, ""Source3"": 0.65}",40,6,6,6,7701.10000038147,red,0,6,0,js-scroll-button-response,187,1,3,92,50           55           50           50           65           50,redredredredblueblue,1  1  1  1  0  0,2,1
11696594,Button0Red,1,"{""Source1"": 0.50, ""Source2"": 0.55, ""Source3"": 0.65}",40,6,6,6,11605.6999988556,red,0,6,0,js-scroll-button-response,189,1,3,93,65           55           50           55           50           65,blueredblueredredred,0  1  0  1  1  1,2,1
11696594,Button0Red,1,"{""Source1"": 0.50, ""Source2"": 0.55, ""Source3"": 0.65}",40,6,6,6,6202.39999961853,blue,1,6,1,js-scroll-button-response,191,1,3,94,65           50           65           50           55           65,redblueblueblueredblue,1  0  0  0  1  0,2,1
11696594,Button0Red,1,"{""Source1"": 0.50, ""Source2"": 0.55, ""Source3"": 0.65}",40,6,6,6,5762.79999923706,blue,0,6,1,js-scroll-button-response,193,0,3,95,55           55           65           55           65           50,redredredredbluered,1  1  1  1  0  1,2,1
11696594,Button0Red,1,"{""Source1"": 0.50, ""Source2"": 0.55, ""Source3"": 0.65}",40,6,6,6,18546.1000003815,red,1,6,0,js-scroll-button-response,195,0,3,96,65           50           50           50           55           65,blueblueredblueblueblue,0  0  1  0  0  0,2,1
11696594,Button0Red,1,"{""Source1"": 0.50, ""Source2"": 0.55, ""Source3"": 0.65}",40,6,6,6,8277.10000038147,red,0,6,0,js-scroll-button-response,197,1,3,97,50           50           55           55           50           65,redblueredblueredred,1  0  1  0  1  1,2,1
11696594,Button0Red,1,"{""Source1"": 0.50, ""Source2"": 0.55, ""Source3"": 0.65}",40,6,6,6,33788.5,blue,1,6,1,js-scroll-button-response,199,1,3,98,55           50           65           55           65           50,redblueredbluebluered,1  0  1  0  0  1,2,1
11696594,Button0Red,1,"{""Source1"": 0.50, ""Source2"": 0.55, ""Source3"": 0.65}",40,6,6,6,7828.70000076294,red,1,6,0,js-scroll-button-response,201,0,3,99,55           65           65           50           65           65,blueredredblueblueblue,0  1  1  0  0  0,2,1
11696594,Button0Red,1,"{""Source1"": 0.50, ""Source2"": 0.55, ""Source3"": 0.65}",40,6,6,6,25395.5,red,0,6,0,js-scroll-button-response,203,1,3,100,50           50           50           50           55           50,redredredblueredred,1  1  1  0  1  1,2,1
11696594,Button0Red,1,"{""Source1"": 0.50, ""Source2"": 0.55, ""Source3"": 0.65}",40,6,6,6,6047.69999885559,blue,0,6,1,js-scroll-button-response,205,0,3,101,65           55           55           50           65           50,redredredredredred,1  1  1  1  1  1,2,1
11696594,Button0Red,1,"{""Source1"": 0.50, ""Source2"": 0.55, ""Source3"": 0.65}",40,6,6,6,5341.79999923706,red,0,6,0,js-scroll-button-response,207,1,3,102,65           55           65           55           65           55,redredredblueredblue,1  1  1  0  1  0,2,1
11696594,Button0Red,1,"{""Source1"": 0.50, ""Source2"": 0.55, ""Source3"": 0.65}",40,6,6,6,8808.40000152588,red,0,6,0,js-scroll-button-response,209,1,3,103,55           65           55           55           55           65,blueredredredbluered,0  1  1  1  0  1,2,1
11696594,Button0Red,1,"{""Source1"": 0.50, ""Source2"": 0.55, ""Source3"": 0.65}",40,6,6,6,19703.5,red,0,6,0,js-scroll-button-response,211,1,3,104,65           55           50           65           65           50,blueblueredredredblue,0  0  1  1  1  0,2,1
11696594,Button0Red,1,"{""Source1"": 0.50, ""Source2"": 0.55, ""Source3"": 0.65}",40,6,6,6,12685.1999988556,red,0,6,0,js-scroll-button-response,213,1,3,105,55           50           55           65           50           55,redredblueredblueblue,1  1  0  1  0  0,2,1
11696594,Button0Red,1,"{""Source1"": 0.50, ""Source2"": 0.55, ""Source3"": 0.65}",40,6,6,6,8451.60000038147,blue,0,6,1,js-scroll-button-response,215,0,3,106,55           55           55           65           50           55,redblueblueredbluered,1  0  0  1  0  1,2,1
11696594,Button0Red,1,"{""Source1"": 0.50, ""Source2"": 0.55, ""Source3"": 0.65}",40,6,6,6,44987.5,red,1,6,0,js-scroll-button-response,217,0,3,107,65           50           55           65           50           55,blueredredbluebluered,0  1  1  0  0  1,2,1
11696594,Button0Red,1,"{""Source1"": 0.50, ""Source2"": 0.55, ""Source3"": 0.65}",40,6,6,6,18698.7999992371,blue,0,6,1,js-scroll-button-response,219,0,3,108,50           55           55           50           65           65,redblueredredredblue,1  0  1  1  1  0,2,1
11696594,Button0Red,1,"{""Source1"": 0.50, ""Source2"": 0.55, ""Source3"": 0.65}",40,6,6,6,53994.1000003815,blue,0,6,1,js-scroll-button-response,221,0,3,109,55           50           55           55           55           50,redblueredredbluered,1  0  1  1  0  1,2,1
11696594,Button0Red,1,"{""Source1"": 0.50, ""Source2"": 0.55, ""Source3"": 0.65}",40,6,6,6,8974.30000114441,red,0,6,0,js-scroll-button-response,223,1,3,110,65           50           55           65           65           50,redredblueredbluered,1  1  0  1  0  1,2,1
11696594,Button0Red,1,"{""Source1"": 0.50, ""Source2"": 0.55, ""Source3"": 0.65}",40,6,6,6,12021.6000003815,blue,1,6,1,js-scroll-button-response,225,1,3,111,50  65  50  50  65  50,redredblueredblueblue,1  1  0  1  0  0,2,1
11696594,Button0Red,1,"{""Source1"": 0.50, ""Source2"": 0.55, ""Source3"": 0.65}",40,6,6,6,5428.89999961853,blue,0,6,1,js-scroll-button-response,227,0,3,112,55           65           50           50           55           55,redblueredredbluered,1  0  1  1  0  1,2,1
11696594,Button0Red,1,"{""Source1"": 0.50, ""Source2"": 0.55, ""Source3"": 0.65}",40,6,6,6,4284.30000114441,red,0,6,0,js-scroll-button-response,229,1,3,113,50           55           65           65           50           55,redredblueredredred,1  1  0  1  1  1,2,1
11696594,Button0Red,1,"{""Source1"": 0.50, ""Source2"": 0.55, ""Source3"": 0.65}",40,6,6,6,7108.39999961853,red,1,6,0,js-scroll-button-response,231,0,3,114,55           50           55           55           55           55,blueredredblueredblue,0  1  1  0  1  0,2,1
11696594,Button0Red,1,"{""Source1"": 0.50, ""Source2"": 0.55, ""Source3"": 0.65}",40,6,6,6,6940,red,0,6,0,js-scroll-button-response,233,1,3,115,65           50           55           65           50           65,redredblueredbluered,1  1  0  1  0  1,2,1
11696594,Button0Red,1,"{""Source1"": 0.50, ""Source2"": 0.55, ""Source3"": 0.65}",40,6,6,6,17722.2999992371,red,0,6,0,js-scroll-button-response,235,1,3,116,65           55           50           65           50           55,redblueredredredblue,1  0  1  1  1  0,2,1
11696594,Button0Red,1,"{""Source1"": 0.50, ""Source2"": 0.55, ""Source3"": 0.65}",40,6,6,6,7412.79999923706,red,0,6,0,js-scroll-button-response,237,1,3,117,65           65           55           50           50           50,redredblueblueredblue,1  1  0  0  1  0,2,1
11696594,Button0Red,1,"{""Source1"": 0.50, ""Source2"": 0.55, ""Source3"": 0.65}",40,6,6,6,32660.6999988556,blue,1,6,1,js-scroll-button-response,239,1,3,118,65           50           55           55           55           65,blueredredblueredblue,0  1  1  0  1  0,2,1
11696594,Button0Red,1,"{""Source1"": 0.50, ""Source2"": 0.55, ""Source3"": 0.65}",40,6,6,6,7268.19999885559,red,1,6,0,js-scroll-button-response,241,0,3,119,55           55           55           50           50           55,blueredbluebluebluered,0  1  0  0  0  1,2,1
11696594,Button0Red,1,"{""Source1"": 0.50, ""Source2"": 0.55, ""Source3"": 0.65}",40,6,6,6,36971.5,red,1,6,0,js-scroll-button-response,243,0,3,120,65           50           65           65           55           65,blueblueredredblueblue,0  0  1  1  0  0,2,1
11696594,Button0Red,1,"{""Source1"": 0.50, ""Source2"": 0.55, ""Source3"": 0.65}",40,6,6,6,16176.6000003815,red,0,6,0,js-scroll-button-response,246,1,4,121,55           50           65           55           65           55,redblueredredredred,1  0  1  1  1  1,2,1
11696594,Button0Red,1,"{""Source1"": 0.50, ""Source2"": 0.55, ""Source3"": 0.65}",40,6,6,6,6725,red,0,6,0,js-scroll-button-response,248,1,4,122,65           50           65           65           55           55,blueredredredredblue,0  1  1  1  1  0,2,1
11696594,Button0Red,1,"{""Source1"": 0.50, ""Source2"": 0.55, ""Source3"": 0.65}",40,6,6,6,9700.10000038147,red,0,6,0,js-scroll-button-response,250,1,4,123,55           50           65           55           55           55,redblueredredredblue,1  0  1  1  1  0,2,1
11696594,Button0Red,1,"{""Source1"": 0.50, ""Source2"": 0.55, ""Source3"": 0.65}",40,6,6,6,11339,red,1,6,0,js-scroll-button-response,252,0,4,124,50           55           55           65           50           65,blueredblueblueredred,0  1  0  0  1  1,2,1
11696594,Button0Red,1,"{""Source1"": 0.50, ""Source2"": 0.55, ""Source3"": 0.65}",40,6,6,6,10903.3999996185,blue,1,6,1,js-scroll-button-response,254,1,4,125,50           50           50           50           65           55,blueblueredblueblueblue,0  0  1  0  0  0,2,1
11696594,Button0Red,1,"{""Source1"": 0.50, ""Source2"": 0.55, ""Source3"": 0.65}",40,6,6,6,21002,blue,0,6,1,js-scroll-button-response,256,0,4,126,55           50           55           50           55           50,redredblueblueredred,1  1  0  0  1  1,2,1
11696594,Button0Red,1,"{""Source1"": 0.50, ""Source2"": 0.55, ""Source3"": 0.65}",40,6,6,6,7375.89999961853,blue,0,6,1,js-scroll-button-response,258,0,4,127,50           65           50           65           65           55,blueblueblueredredred,0  0  0  1  1  1,2,1
11696594,Button0Red,1,"{""Source1"": 0.50, ""Source2"": 0.55, ""Source3"": 0.65}",40,6,6,6,24910,red,0,6,0,js-scroll-button-response,260,1,4,128,65           55           55           50           55           55,redblueredbluebluered,1  0  1  0  0  1,2,1
11696594,Button0Red,1,"{""Source1"": 0.50, ""Source2"": 0.55, ""Source3"": 0.65}",40,6,6,6,28501.7999992371,red,1,6,0,js-scroll-button-response,262,0,4,129,50           55           55           55           50           55,redblueblueredblueblue,1  0  0  1  0  0,2,1
11696594,Button0Red,1,"{""Source1"": 0.50, ""Source2"": 0.55, ""Source3"": 0.65}",40,6,6,6,5533.39999961853,blue,0,6,1,js-scroll-button-response,264,0,4,130,65           65           50           55           50           65,redredblueblueredred,1  1  0  0  1  1,2,1
11696594,Button0Red,1,"{""Source1"": 0.50, ""Source2"": 0.55, ""Source3"": 0.65}",40,6,6,6,6253.39999961853,blue,1,6,1,js-scroll-button-response,266,1,4,131,50           55           50           55           55           50,blueblueblueredredblue,0  0  0  1  1  0,2,1
11696594,Button0Red,1,"{""Source1"": 0.50, ""Source2"": 0.55, ""Source3"": 0.65}",40,6,6,6,8541.20000076294,red,1,6,0,js-scroll-button-response,268,0,4,132,50           55           65           50           65           55,redblueblueblueredblue,1  0  0  0  1  0,2,1
11696594,Button0Red,1,"{""Source1"": 0.50, ""Source2"": 0.55, ""Source3"": 0.65}",40,6,6,6,13572.4000015259,red,0,6,0,js-scroll-button-response,270,1,4,133,65           55           55           50           65           65,redredredblueredred,1  1  1  0  1  1,2,1
11696594,Button0Red,1,"{""Source1"": 0.50, ""Source2"": 0.55, ""Source3"": 0.65}",40,6,6,6,15644.3000011444,red,0,6,0,js-scroll-button-response,272,1,4,134,50  50  50  65  65  65,blueblueblueblueredred,0  0  0  0  1  1,2,1
11696594,Button0Red,1,"{""Source1"": 0.50, ""Source2"": 0.55, ""Source3"": 0.65}",40,6,6,6,8003.10000038147,blue,0,6,1,js-scroll-button-response,274,0,4,135,65           55           65           55           65           55,blueredredredredred,0  1  1  1  1  1,2,1
11696594,Button0Red,1,"{""Source1"": 0.50, ""Source2"": 0.55, ""Source3"": 0.65}",40,6,6,6,7042.60000038147,red,1,6,0,js-scroll-button-response,276,0,4,136,55           65           55           55           50           50,blueblueredblueblueblue,0  0  1  0  0  0,2,1
11696594,Button0Red,1,"{""Source1"": 0.50, ""Source2"": 0.55, ""Source3"": 0.65}",40,6,6,6,20553.7999992371,red,1,6,0,js-scroll-button-response,278,0,4,137,65           55           55           65           65           55,redredblueredblueblue,1  1  0  1  0  0,2,1
11696594,Button0Red,1,"{""Source1"": 0.50, ""Source2"": 0.55, ""Source3"": 0.65}",40,6,6,6,19831.6999988556,red,1,6,0,js-scroll-button-response,280,0,4,138,65           55           50           50           50           65,blueredredredblueblue,0  1  1  1  0  0,2,1
11696594,Button0Red,1,"{""Source1"": 0.50, ""Source2"": 0.55, ""Source3"": 0.65}",40,6,6,6,21428,red,1,6,0,js-scroll-button-response,282,0,4,139,65           50           55           50           65           50,blueredblueredredred,0  1  0  1  1  1,2,1
11696594,Button0Red,1,"{""Source1"": 0.50, ""Source2"": 0.55, ""Source3"": 0.65}",40,6,6,6,7217.29999923706,blue,1,6,1,js-scroll-button-response,284,1,4,140,65           65           55           55           50           65,blueblueredredblueblue,0  0  1  1  0  0,2,1
11696594,Button0Red,1,"{""Source1"": 0.50, ""Source2"": 0.55, ""Source3"": 0.65}",40,6,6,6,7178,red,0,6,0,js-scroll-button-response,286,1,4,141,55           65           50           65           65           50,redblueredredredred,1  0  1  1  1  1,2,1
11696594,Button0Red,1,"{""Source1"": 0.50, ""Source2"": 0.55, ""Source3"": 0.65}",40,6,6,6,21205.1999988556,blue,1,6,1,js-scroll-button-response,288,1,4,142,50  50  65  65  65  50,redblueredblueredblue,1  0  1  0  1  0,2,1
11696594,Button0Red,1,"{""Source1"": 0.50, ""Source2"": 0.55, ""Source3"": 0.65}",40,6,6,6,20132.2000007629,red,1,6,0,js-scroll-button-response,290,0,4,143,50           55           55           50           65           50,blueredredbluebluered,0  1  1  0  0  1,2,1
11696594,Button0Red,1,"{""Source1"": 0.50, ""Source2"": 0.55, ""Source3"": 0.65}",40,6,6,6,15828.8000011444,red,0,6,0,js-scroll-button-response,292,1,4,144,50           55           65           65           55           65,redredbluebluebluered,1  1  0  0  0  1,2,1
11696594,Button0Red,1,"{""Source1"": 0.50, ""Source2"": 0.55, ""Source3"": 0.65}",40,6,6,6,9908,red,0,6,0,js-scroll-button-response,294,1,4,145,55           50           50           65           50           65,redredblueredredred,1  1  0  1  1  1,2,1
11696594,Button0Red,1,"{""Source1"": 0.50, ""Source2"": 0.55, ""Source3"": 0.65}",40,6,6,6,13787.3999996185,red,0,6,0,js-scroll-button-response,296,1,4,146,55           55           50           65           50           65,redredblueredblueblue,1  1  0  1  0  0,2,1
11696594,Button0Red,1,"{""Source1"": 0.50, ""Source2"": 0.55, ""Source3"": 0.65}",40,6,6,6,21049.6999988556,blue,1,6,1,js-scroll-button-response,298,1,4,147,65           55           50           50           50           65,blueblueredblueredblue,0  0  1  0  1  0,2,1
11696594,Button0Red,1,"{""Source1"": 0.50, ""Source2"": 0.55, ""Source3"": 0.65}",40,6,6,6,8048.29999923706,blue,0,6,1,js-scroll-button-response,300,0,4,148,55           65           50           50           65           50,redredblueredbluered,1  1  0  1  0  1,2,1
11696594,Button0Red,1,"{""Source1"": 0.50, ""Source2"": 0.55, ""Source3"": 0.65}",40,6,6,6,7822.80000114441,red,0,6,0,js-scroll-button-response,302,1,4,149,50           50           55           55           65           50,blueredblueredredblue,0  1  0  1  1  0,2,1
11696594,Button0Red,1,"{""Source1"": 0.50, ""Source2"": 0.55, ""Source3"": 0.65}",40,6,6,6,6110.89999961853,red,0,6,0,js-scroll-button-response,304,1,4,150,65           55           65           65           65           65,redblueblueredbluered,1  0  0  1  0  1,2,1
11696594,Button0Red,1,"{""Source1"": 0.50, ""Source2"": 0.55, ""Source3"": 0.65}",40,6,6,6,6309.5,blue,1,6,1,js-scroll-button-response,306,1,4,151,65           50           55           65           55           65,blueredredblueblueblue,0  1  1  0  0  0,2,1
11696594,Button0Red,1,"{""Source1"": 0.50, ""Source2"": 0.55, ""Source3"": 0.65}",40,6,6,6,10197.3000011444,red,0,6,0,js-scroll-button-response,308,1,4,152,55           55           50           65           55           65,blueredredblueredred,0  1  1  0  1  1,2,1
11696594,Button0Red,1,"{""Source1"": 0.50, ""Source2"": 0.55, ""Source3"": 0.65}",40,6,6,6,8845.29999923706,red,1,6,0,js-scroll-button-response,310,0,4,153,55           55           55           50           55           65,blueblueblueredblueblue,0  0  0  1  0  0,2,1
11696594,Button0Red,1,"{""Source1"": 0.50, ""Source2"": 0.55, ""Source3"": 0.65}",40,6,6,6,6365.29999923706,red,1,6,0,js-scroll-button-response,312,0,4,154,55           65           50           50           55           50,blueblueredbluebluered,0  0  1  0  0  1,2,1
11696594,Button0Red,1,"{""Source1"": 0.50, ""Source2"": 0.55, ""Source3"": 0.65}",40,6,6,6,5013.40000152588,red,0,6,0,js-scroll-button-response,314,1,4,155,65           50           65           65           55           50,redblueredredblueblue,1  0  1  1  0  0,2,1
11696594,Button0Red,1,"{""Source1"": 0.50, ""Source2"": 0.55, ""Source3"": 0.65}",40,6,6,6,5900.20000076294,blue,0,6,1,js-scroll-button-response,316,0,4,156,65           50           55           65           55           55,blueblueredblueredblue,0  0  1  0  1  0,2,1
11696594,Button0Red,1,"{""Source1"": 0.50, ""Source2"": 0.55, ""Source3"": 0.65}",40,6,6,6,11045.5,blue,0,6,1,js-scroll-button-response,318,0,4,157,55           65           55           50           55           55,redblueredredbluered,1  0  1  1  0  1,2,1
11696594,Button0Red,1,"{""Source1"": 0.50, ""Source2"": 0.55, ""Source3"": 0.65}",40,6,6,6,6132.39999961853,red,1,6,0,js-scroll-button-response,320,0,4,158,65           55           55           65           65           50,blueblueblueblueredred,0  0  0  0  1  1,2,1
11696594,Button0Red,1,"{""Source1"": 0.50, ""Source2"": 0.55, ""Source3"": 0.65}",40,6,6,6,5843.70000076294,red,0,6,0,js-scroll-button-response,322,1,4,159,50           55           50           55           65           65,blueredredredredred,0  1  1  1  1  1,2,1
11696594,Button0Red,1,"{""Source1"": 0.50, ""Source2"": 0.55, ""Source3"": 0.65}",40,6,6,6,5955.60000038147,blue,1,6,1,js-scroll-button-response,324,1,4,160,65           50           50           55           50           50,blueblueblueredbluered,0  0  0  1  0  1,2,1
11696594,Button0Red,1,"{""Source1"": 0.50, ""Source2"": 0.55, ""Source3"": 0.65}",40,6,6,6,8002.5,red,0,6,0,js-scroll-button-response,327,1,5,161,55           65           50           65           55           65,blueredblueredbluered,0  1  0  1  0  1,2,1
11696594,Button0Red,1,"{""Source1"": 0.50, ""Source2"": 0.55, ""Source3"": 0.65}",40,6,6,6,5114.29999923706,red,0,6,0,js-scroll-button-response,329,1,5,162,55           50           50           55           65           50,redblueblueredredblue,1  0  0  1  1  0,2,1
11696594,Button0Red,1,"{""Source1"": 0.50, ""Source2"": 0.55, ""Source3"": 0.65}",40,6,6,6,5385.60000038147,red,0,6,0,js-scroll-button-response,331,1,5,163,65  65  65  65  50  65,redredredredblueblue,1  1  1  1  0  0,2,1
11696594,Button0Red,1,"{""Source1"": 0.50, ""Source2"": 0.55, ""Source3"": 0.65}",40,6,6,6,6281.80000114441,red,1,6,0,js-scroll-button-response,333,0,5,164,55           50           65           65           50           55,redblueredblueredblue,1  0  1  0  1  0,2,1
11696594,Button0Red,1,"{""Source1"": 0.50, ""Source2"": 0.55, ""Source3"": 0.65}",40,6,6,6,5152,red,0,6,0,js-scroll-button-response,335,1,5,165,65           50           55           65           55           55,redredblueredredblue,1  1  0  1  1  0,2,1
11696594,Button0Red,1,"{""Source1"": 0.50, ""Source2"": 0.55, ""Source3"": 0.65}",40,6,6,6,5096,blue,0,6,1,js-scroll-button-response,337,0,5,166,50           50           50           65           65           55,redredredblueblueblue,1  1  1  0  0  0,2,1
11696594,Button0Red,1,"{""Source1"": 0.50, ""Source2"": 0.55, ""Source3"": 0.65}",40,6,6,6,5631.30000114441,red,0,6,0,js-scroll-button-response,339,1,5,167,50           65           65           65           55           65,blueredredredredblue,0  1  1  1  1  0,2,1
11696594,Button0Red,1,"{""Source1"": 0.50, ""Source2"": 0.55, ""Source3"": 0.65}",40,6,6,6,5711.70000076294,blue,1,6,1,js-scroll-button-response,341,1,5,168,55           50           50           65           65           65,redblueblueblueblueblue,1  0  0  0  0  0,2,1
11696594,Button0Red,1,"{""Source1"": 0.50, ""Source2"": 0.55, ""Source3"": 0.65}",40,6,6,6,5077.5,red,0,6,0,js-scroll-button-response,343,1,5,169,65           50           50           55           65           50,redredredredbluered,1  1  1  1  0  1,2,1
11696594,Button0Red,1,"{""Source1"": 0.50, ""Source2"": 0.55, ""Source3"": 0.65}",40,6,6,6,6206.89999961853,red,0,6,0,js-scroll-button-response,345,1,5,170,65           55           65           65           50           50,redblueblueredredblue,1  0  0  1  1  0,2,1
11696594,Button0Red,1,"{""Source1"": 0.50, ""Source2"": 0.55, ""Source3"": 0.65}",40,6,6,6,6205.10000038147,red,0,6,0,js-scroll-button-response,347,1,5,171,50           50           65           50           55           65,blueredredblueredblue,0  1  1  0  1  0,2,1
11696594,Button0Red,1,"{""Source1"": 0.50, ""Source2"": 0.55, ""Source3"": 0.65}",40,6,6,6,5548.79999923706,blue,0,6,1,js-scroll-button-response,349,0,5,172,50           65           50           65           55           65,redredblueredredblue,1  1  0  1  1  0,2,1
11696594,Button0Red,1,"{""Source1"": 0.50, ""Source2"": 0.55, ""Source3"": 0.65}",40,6,6,6,5748.20000076294,red,0,6,0,js-scroll-button-response,351,1,5,173,65           55           55           55           55           50,redredblueredredblue,1  1  0  1  1  0,2,1
11696594,Button0Red,1,"{""Source1"": 0.50, ""Source2"": 0.55, ""Source3"": 0.65}",40,6,6,6,7548.5,red,0,6,0,js-scroll-button-response,353,1,5,174,65           50           55           55           50           55,blueredblueredbluered,0  1  0  1  0  1,2,1
11696594,Button0Red,1,"{""Source1"": 0.50, ""Source2"": 0.55, ""Source3"": 0.65}",40,6,6,6,6524.5,blue,1,6,1,js-scroll-button-response,355,1,5,175,65           55           65           55           55           50,blueredbluebluebluered,0  1  0  0  0  1,2,1
11696594,Button0Red,1,"{""Source1"": 0.50, ""Source2"": 0.55, ""Source3"": 0.65}",40,6,6,6,6612.60000038147,blue,0,6,1,js-scroll-button-response,357,0,5,176,55           50           50           65           65           50,blueblueredbluebluered,0  0  1  0  0  1,2,1
11696594,Button0Red,1,"{""Source1"": 0.50, ""Source2"": 0.55, ""Source3"": 0.65}",40,6,6,6,11301.5,red,0,6,0,js-scroll-button-response,359,1,5,177,55           50           55           55           50           50,blueblueblueredredred,0  0  0  1  1  1,2,1
11696594,Button0Red,1,"{""Source1"": 0.50, ""Source2"": 0.55, ""Source3"": 0.65}",40,6,6,6,6092.70000076294,red,0,6,0,js-scroll-button-response,361,1,5,178,55           65           55           55           55           55,blueredblueblueredred,0  1  0  0  1  1,2,1
11696594,Button0Red,1,"{""Source1"": 0.50, ""Source2"": 0.55, ""Source3"": 0.65}",40,6,6,6,6308.89999961853,blue,0,6,1,js-scroll-button-response,363,0,5,179,50           55           55           55           55           55,blueblueredredredred,0  0  1  1  1  1,2,1
11696594,Button0Red,1,"{""Source1"": 0.50, ""Source2"": 0.55, ""Source3"": 0.65}",40,6,6,6,8541.29999923706,blue,0,6,1,js-scroll-button-response,365,0,5,180,50           55           50           50           55           50,redblueredredredblue,1  0  1  1  1  0,2,1
11696594,Button0Red,1,"{""Source1"": 0.50, ""Source2"": 0.55, ""Source3"": 0.65}",40,6,6,6,6469.69999885559,blue,1,6,1,js-scroll-button-response,367,1,5,181,50           65           65           55           55           55,blueblueredredblueblue,0  0  1  1  0  0,2,1
11696594,Button0Red,1,"{""Source1"": 0.50, ""Source2"": 0.55, ""Source3"": 0.65}",40,6,6,6,6573.29999923706,red,0,6,0,js-scroll-button-response,369,1,5,182,50           65           55           55           65           50,redblueredblueredred,1  0  1  0  1  1,2,1
11696594,Button0Red,1,"{""Source1"": 0.50, ""Source2"": 0.55, ""Source3"": 0.65}",40,6,6,6,5901.89999961853,red,0,6,0,js-scroll-button-response,371,1,5,183,50           55           65           50           65           50,redredredbluebluered,1  1  1  0  0  1,2,1
11696594,Button0Red,1,"{""Source1"": 0.50, ""Source2"": 0.55, ""Source3"": 0.65}",40,6,6,6,9436.89999961853,red,0,6,0,js-scroll-button-response,373,1,5,184,50           55           65           50           55           55,blueredredredredblue,0  1  1  1  1  0,2,1
11696594,Button0Red,1,"{""Source1"": 0.50, ""Source2"": 0.55, ""Source3"": 0.65}",40,6,6,6,6605.20000076294,blue,0,6,1,js-scroll-button-response,375,0,5,185,65           50           65           65           65           55,blueredredblueredblue,0  1  1  0  1  0,2,1
11696594,Button0Red,1,"{""Source1"": 0.50, ""Source2"": 0.55, ""Source3"": 0.65}",40,6,6,6,13988.6999988556,red,0,6,0,js-scroll-button-response,377,1,5,186,55           65           50           55           65           55,redredblueredredblue,1  1  0  1  1  0,2,1
11696594,Button0Red,1,"{""Source1"": 0.50, ""Source2"": 0.55, ""Source3"": 0.65}",40,6,6,6,7813.40000152588,blue,1,6,1,js-scroll-button-response,379,1,5,187,65           50           50           65           55           55,blueredbluebluebluered,0  1  0  0  0  1,2,1
11696594,Button0Red,1,"{""Source1"": 0.50, ""Source2"": 0.55, ""Source3"": 0.65}",40,6,6,6,5836.69999885559,red,1,6,0,js-scroll-button-response,381,0,5,188,65           55           50           55           50           55,blueblueredblueredred,0  0  1  0  1  1,2,1
11696594,Button0Red,1,"{""Source1"": 0.50, ""Source2"": 0.55, ""Source3"": 0.65}",40,6,6,6,5828.80000114441,red,0,6,0,js-scroll-button-response,383,1,5,189,50           65           55           65           55           50,redblueredredredblue,1  0  1  1  1  0,2,1
11696594,Button0Red,1,"{""Source1"": 0.50, ""Source2"": 0.55, ""Source3"": 0.65}",40,6,6,6,5779.70000076294,blue,1,6,1,js-scroll-button-response,385,1,5,190,55           65           50           65           65           50,blueblueredredblueblue,0  0  1  1  0  0,2,1
11696594,Button0Red,1,"{""Source1"": 0.50, ""Source2"": 0.55, ""Source3"": 0.65}",40,6,6,6,6219,blue,1,6,1,js-scroll-button-response,387,1,5,191,65           50           55           50           55           55,blueredredblueblueblue,0  1  1  0  0  0,2,1
11696594,Button0Red,1,"{""Source1"": 0.50, ""Source2"": 0.55, ""Source3"": 0.65}",40,6,6,6,6685.5,red,0,6,0,js-scroll-button-response,389,1,5,192,55           55           65           50           50           50,redblueredredredblue,1  0  1  1  1  0,2,1
11696594,Button0Red,1,"{""Source1"": 0.50, ""Source2"": 0.55, ""Source3"": 0.65}",40,6,6,6,6597.79999923706,blue,0,6,1,js-scroll-button-response,391,0,5,193,50           65           50           65           55           50,blueredredblueredblue,0  1  1  0  1  0,2,1
11696594,Button0Red,1,"{""Source1"": 0.50, ""Source2"": 0.55, ""Source3"": 0.65}",40,6,6,6,6726,red,0,6,0,js-scroll-button-response,393,1,5,194,55           50           50           50           65           65,blueblueredblueredblue,0  0  1  0  1  0,2,1
11696594,Button0Red,1,"{""Source1"": 0.50, ""Source2"": 0.55, ""Source3"": 0.65}",40,6,6,6,6797.29999923706,red,1,6,0,js-scroll-button-response,395,0,5,195,65  50  50  65  65  50,blueblueredblueredblue,0  0  1  0  1  0,2,1
11696594,Button0Red,1,"{""Source1"": 0.50, ""Source2"": 0.55, ""Source3"": 0.65}",40,6,6,6,7837.60000038147,blue,0,6,1,js-scroll-button-response,397,0,5,196,50           50           65           55           55           50,blueblueredblueredred,0  0  1  0  1  1,2,1
11696594,Button0Red,1,"{""Source1"": 0.50, ""Source2"": 0.55, ""Source3"": 0.65}",40,6,6,6,5438,red,0,6,0,js-scroll-button-response,399,1,5,197,50           50           65           65           55           55,redredredredredred,1  1  1  1  1  1,2,1
11696594,Button0Red,1,"{""Source1"": 0.50, ""Source2"": 0.55, ""Source3"": 0.65}",40,6,6,6,4821.39999961853,red,0,6,0,js-scroll-button-response,401,1,5,198,65           50           50           55           65           55,redredblueblueredred,1  1  0  0  1  1,2,1
11696594,Button0Red,1,"{""Source1"": 0.50, ""Source2"": 0.55, ""Source3"": 0.65}",40,6,6,6,5245.80000114441,red,0,6,0,js-scroll-button-response,403,1,5,199,65           65           65           55           50           65,blueredredredbluered,0  1  1  1  0  1,2,1
11696594,Button0Red,1,"{""Source1"": 0.50, ""Source2"": 0.55, ""Source3"": 0.65}",40,6,6,6,6150.40000152588,red,0,6,0,js-scroll-button-response,405,1,5,200,65           65           55           65           50           55,blueredblueblueredred,0  1  0  0  1  1,2,1
11696594,Button0Red,1,"{""Source1"": 0.50, ""Source2"": 0.55, ""Source3"": 0.65}",40,6,6,6,8989.39999961853,red,0,6,0,js-scroll-button-response,408,1,6,201,55           55           50           55           50           50,redredredredblueblue,1  1  1  1  0  0,2,1
11696594,Button0Red,1,"{""Source1"": 0.50, ""Source2"": 0.55, ""Source3"": 0.65}",40,6,6,6,5733.20000076294,red,0,6,0,js-scroll-button-response,410,1,6,202,65           55           65           65           65           65,redblueredredbluered,1  0  1  1  0  1,2,1
11696594,Button0Red,1,"{""Source1"": 0.50, ""Source2"": 0.55, ""Source3"": 0.65}",40,6,6,6,6581.60000038147,blue,0,6,1,js-scroll-button-response,412,0,6,203,50           55           50           50           50           50,blueredredbluebluered,0  1  1  0  0  1,2,1
11696594,Button0Red,1,"{""Source1"": 0.50, ""Source2"": 0.55, ""Source3"": 0.65}",40,6,6,6,5517.20000076294,red,1,6,0,js-scroll-button-response,414,0,6,204,65           50           55           65           65           55,redredredblueblueblue,1  1  1  0  0  0,2,1
11696594,Button0Red,1,"{""Source1"": 0.50, ""Source2"": 0.55, ""Source3"": 0.65}",40,6,6,6,6429.19999885559,red,0,6,0,js-scroll-button-response,416,1,6,205,50           55           50           55           50           55,blueredbluebluebluered,0  1  0  0  0  1,2,1
11696594,Button0Red,1,"{""Source1"": 0.50, ""Source2"": 0.55, ""Source3"": 0.65}",40,6,6,6,5397.30000114441,red,0,6,0,js-scroll-button-response,418,1,6,206,50           50           50           55           55           50,redredblueredredblue,1  1  0  1  1  0,2,1
11696594,Button0Red,1,"{""Source1"": 0.50, ""Source2"": 0.55, ""Source3"": 0.65}",40,6,6,6,4757.40000152588,blue,0,6,1,js-scroll-button-response,420,0,6,207,50           65           65           50           55           50,redredredredredred,1  1  1  1  1  1,2,1
11696594,Button0Red,1,"{""Source1"": 0.50, ""Source2"": 0.55, ""Source3"": 0.65}",40,6,6,6,7917.10000038147,blue,0,6,1,js-scroll-button-response,422,0,6,208,65           55           50           65           50           55,blueredblueredbluered,0  1  0  1  0  1,2,1
11696594,Button0Red,1,"{""Source1"": 0.50, ""Source2"": 0.55, ""Source3"": 0.65}",40,6,6,6,8445.5,blue,0,6,1,js-scroll-button-response,424,0,6,209,65           65           50           55           55           55,redblueredredredblue,1  0  1  1  1  0,2,1
11696594,Button0Red,1,"{""Source1"": 0.50, ""Source2"": 0.55, ""Source3"": 0.65}",40,6,6,6,10133.9000015259,red,1,6,0,js-scroll-button-response,426,0,6,210,50           50           50           55           55           55,blueredblueredblueblue,0  1  0  1  0  0,2,1
11696594,Button0Red,1,"{""Source1"": 0.50, ""Source2"": 0.55, ""Source3"": 0.65}",40,6,6,6,10052.8999996185,red,0,6,0,js-scroll-button-response,428,1,6,211,55           50           55           65           50           55,blueredredredblueblue,0  1  1  1  0  0,2,1
11696594,Button0Red,1,"{""Source1"": 0.50, ""Source2"": 0.55, ""Source3"": 0.65}",40,6,6,6,5548.5,red,0,6,0,js-scroll-button-response,430,1,6,212,65           50           55           65           55           55,blueredredredbluered,0  1  1  1  0  1,2,1
11696594,Button0Red,1,"{""Source1"": 0.50, ""Source2"": 0.55, ""Source3"": 0.65}",40,6,6,6,5331.39999961853,blue,1,6,1,js-scroll-button-response,432,1,6,213,65           65           55           50           50           50,blueblueblueblueblueblue,0  0  0  0  0  0,2,1
11696594,Button0Red,1,"{""Source1"": 0.50, ""Source2"": 0.55, ""Source3"": 0.65}",40,6,6,6,5507.69999885559,red,0,6,0,js-scroll-button-response,434,1,6,214,55           65           55           65           65           50,redredblueredbluered,1  1  0  1  0  1,2,1
11696594,Button0Red,1,"{""Source1"": 0.50, ""Source2"": 0.55, ""Source3"": 0.65}",40,6,6,6,5938.20000076294,red,0,6,0,js-scroll-button-response,436,1,6,215,65           50           55           55           65           65,redblueblueredredred,1  0  0  1  1  1,2,1
11696594,Button0Red,1,"{""Source1"": 0.50, ""Source2"": 0.55, ""Source3"": 0.65}",40,6,6,6,16277.1000003815,red,1,6,0,js-scroll-button-response,438,0,6,216,50           55           65           65           50           55,blueblueblueredredblue,0  0  0  1  1  0,2,1
11696594,Button0Red,1,"{""Source1"": 0.50, ""Source2"": 0.55, ""Source3"": 0.65}",40,6,6,6,5894.5,red,0,6,0,js-scroll-button-response,440,1,6,217,65           50           65           65           55           65,redblueblueredbluered,1  0  0  1  0  1,2,1
11696594,Button0Red,1,"{""Source1"": 0.50, ""Source2"": 0.55, ""Source3"": 0.65}",40,6,6,6,5589.80000114441,blue,0,6,1,js-scroll-button-response,442,0,6,218,65           55           65           50           65           55,blueredblueredredblue,0  1  0  1  1  0,2,1
11696594,Button0Red,1,"{""Source1"": 0.50, ""Source2"": 0.55, ""Source3"": 0.65}",40,6,6,6,4940.70000076294,red,1,6,0,js-scroll-button-response,444,0,6,219,50           50           65           50           55           65,redblueblueblueredblue,1  0  0  0  1  0,2,1
11696594,Button0Red,1,"{""Source1"": 0.50, ""Source2"": 0.55, ""Source3"": 0.65}",40,6,6,6,5213,blue,1,6,1,js-scroll-button-response,446,1,6,220,55           65           65           55           50           65,blueblueredblueblueblue,0  0  1  0  0  0,2,1
11696594,Button0Red,1,"{""Source1"": 0.50, ""Source2"": 0.55, ""Source3"": 0.65}",40,6,6,6,7813.79999923706,red,0,6,0,js-scroll-button-response,448,1,6,221,55           50           55           55           55           65,redredblueblueredred,1  1  0  0  1  1,2,1
11696594,Button0Red,1,"{""Source1"": 0.50, ""Source2"": 0.55, ""Source3"": 0.65}",40,6,6,6,5885.19999885559,red,1,6,0,js-scroll-button-response,450,0,6,222,50           65           65           55           50           55,blueredredblueblueblue,0  1  1  0  0  0,2,1
11696594,Button0Red,1,"{""Source1"": 0.50, ""Source2"": 0.55, ""Source3"": 0.65}",40,6,6,6,5429.20000076294,red,0,6,0,js-scroll-button-response,452,1,6,223,50           65           65           55           65           65,blueredredredredblue,0  1  1  1  1  0,2,1
11696594,Button0Red,1,"{""Source1"": 0.50, ""Source2"": 0.55, ""Source3"": 0.65}",40,6,6,6,6108.80000114441,blue,1,6,1,js-scroll-button-response,454,1,6,224,65  50  65  65  50  65,blueblueblueblueblueblue,0  0  0  0  0  0,2,1
11696594,Button0Red,1,"{""Source1"": 0.50, ""Source2"": 0.55, ""Source3"": 0.65}",40,6,6,6,13757.1000003815,blue,1,6,1,js-scroll-button-response,456,1,6,225,65           55           65           55           50           50,blueblueredbluebluered,0  0  1  0  0  1,2,1
11696594,Button0Red,1,"{""Source1"": 0.50, ""Source2"": 0.55, ""Source3"": 0.65}",40,6,6,6,5069.60000038147,red,0,6,0,js-scroll-button-response,458,1,6,226,65           65           55           50           65           50,redredbluebluebluered,1  1  0  0  0  1,2,1
11696594,Button0Red,1,"{""Source1"": 0.50, ""Source2"": 0.55, ""Source3"": 0.65}",40,6,6,6,6133.39999961853,blue,0,6,1,js-scroll-button-response,460,0,6,227,50           65           55           65           50           50,redredredblueredred,1  1  1  0  1  1,2,1
11696594,Button0Red,1,"{""Source1"": 0.50, ""Source2"": 0.55, ""Source3"": 0.65}",40,6,6,6,6524.20000076294,red,0,6,0,js-scroll-button-response,462,1,6,228,50           55           50           55           65           50,redredredbluebluered,1  1  1  0  0  1,2,1
11696594,Button0Red,1,"{""Source1"": 0.50, ""Source2"": 0.55, ""Source3"": 0.65}",40,6,6,6,4709.20000076294,blue,0,6,1,js-scroll-button-response,464,0,6,229,55           50           50           50           55           65,redredredredredblue,1  1  1  1  1  0,2,1
11696594,Button0Red,1,"{""Source1"": 0.50, ""Source2"": 0.55, ""Source3"": 0.65}",40,6,6,6,5005.70000076294,red,0,6,0,js-scroll-button-response,466,1,6,230,50  50  50  50  65  50,blueblueredredbluered,0  0  1  1  0  1,2,1
11696594,Button0Red,1,"{""Source1"": 0.50, ""Source2"": 0.55, ""Source3"": 0.65}",40,6,6,6,5102.10000038147,blue,0,6,1,js-scroll-button-response,468,0,6,231,65           65           50           65           55           55,redredredredredred,1  1  1  1  1  1,2,1
11696594,Button0Red,1,"{""Source1"": 0.50, ""Source2"": 0.55, ""Source3"": 0.65}",40,6,6,6,10282,red,1,6,0,js-scroll-button-response,470,0,6,232,65           65           55           55           55           50,blueredredredblueblue,0  1  1  1  0  0,2,1
11696594,Button0Red,1,"{""Source1"": 0.50, ""Source2"": 0.55, ""Source3"": 0.65}",40,6,6,6,5813.60000038147,red,0,6,0,js-scroll-button-response,472,1,6,233,50           50           65           50           55           55,blueredredbluebluered,0  1  1  0  0  1,2,1
11696594,Button0Red,1,"{""Source1"": 0.50, ""Source2"": 0.55, ""Source3"": 0.65}",40,6,6,6,4788.20000076294,red,1,6,0,js-scroll-button-response,474,0,6,234,50           50           65           50           55           55,blueredblueblueblueblue,0  1  0  0  0  0,2,1
11696594,Button0Red,1,"{""Source1"": 0.50, ""Source2"": 0.55, ""Source3"": 0.65}",40,6,6,6,3596.19999885559,blue,0,6,1,js-scroll-button-response,476,0,6,235,65           50           55           65           50           55,blueredredredredred,0  1  1  1  1  1,2,1
11696594,Button0Red,1,"{""Source1"": 0.50, ""Source2"": 0.55, ""Source3"": 0.65}",40,6,6,6,5740.89999961853,red,0,6,0,js-scroll-button-response,478,1,6,236,65           55           65           50           50           55,redredredredbluered,1  1  1  1  0  1,2,1
11696594,Button0Red,1,"{""Source1"": 0.50, ""Source2"": 0.55, ""Source3"": 0.65}",40,6,6,6,5490.70000076294,red,1,6,0,js-scroll-button-response,480,0,6,237,65           55           55           50           50           65,redblueredredblueblue,1  0  1  1  0  0,2,1
11696594,Button0Red,1,"{""Source1"": 0.50, ""Source2"": 0.55, ""Source3"": 0.65}",40,6,6,6,4965.29999923706,red,0,6,0,js-scroll-button-response,482,1,6,238,50           65           65           55           55           50,blueredredblueblueblue,0  1  1  0  0  0,2,1
11696594,Button0Red,1,"{""Source1"": 0.50, ""Source2"": 0.55, ""Source3"": 0.65}",40,6,6,6,4350.19999885559,red,0,6,0,js-scroll-button-response,484,1,6,239,50           55           65           55           50           55,redblueblueredbluered,1  0  0  1  0  1,2,1
11696594,Button0Red,1,"{""Source1"": 0.50, ""Source2"": 0.55, ""Source3"": 0.65}",40,6,6,6,5997.60000038147,blue,0,6,1,js-scroll-button-response,486,0,6,240,65           65           55           65           65           65,blueredblueblueredblue,0  1  0  0  1  0,2,1
11710205,Button0Blue,0,"{""Source1"": 0.50, ""Source2"": 0.55, ""Source3"": 0.65}",40,6,6,6,8050.40000000596,blue,1,6,0,js-scroll-button-response,3,0,1,1,50           55           55           50           65           65,redredblueredredred,0  0  1  0  0  0,2,1
11710205,Button0Blue,0,"{""Source1"": 0.50, ""Source2"": 0.55, ""Source3"": 0.65}",40,6,6,6,7362.70000000298,red,1,6,1,js-scroll-button-response,5,1,1,2,55           50           65           55           55           50,blueblueredblueblueblue,1  1  0  1  1  1,2,1
11710205,Button0Blue,0,"{""Source1"": 0.50, ""Source2"": 0.55, ""Source3"": 0.65}",40,6,6,6,5717.89999999106,red,1,6,1,js-scroll-button-response,7,1,1,3,65           55           65           55           50           65,blueblueredredredred,1  1  0  0  0  0,2,1
11710205,Button0Blue,0,"{""Source1"": 0.50, ""Source2"": 0.55, ""Source3"": 0.65}",40,6,6,6,5134.40000000596,blue,1,6,0,js-scroll-button-response,9,0,1,4,50           50           50           65           55           55,blueredredredredred,1  0  0  0  0  0,2,1
11710205,Button0Blue,0,"{""Source1"": 0.50, ""Source2"": 0.55, ""Source3"": 0.65}",40,6,6,6,2715.59999999404,red,0,6,1,js-scroll-button-response,11,0,1,5,55           65           50           55           55           65,blueblueblueredbluered,1  1  1  0  1  0,2,1
11710205,Button0Blue,0,"{""Source1"": 0.50, ""Source2"": 0.55, ""Source3"": 0.65}",40,6,6,6,2695.39999999106,blue,1,6,0,js-scroll-button-response,13,0,1,6,65           50           65           65           55           50,blueblueredblueblueblue,1  1  0  1  1  1,2,1
11710205,Button0Blue,0,"{""Source1"": 0.50, ""Source2"": 0.55, ""Source3"": 0.65}",40,6,6,6,1585.39999999106,blue,1,6,0,js-scroll-button-response,15,0,1,7,50           55           50           65           50           55,redblueredredbluered,0  1  0  0  1  0,2,1
11710205,Button0Blue,0,"{""Source1"": 0.50, ""Source2"": 0.55, ""Source3"": 0.65}",40,6,6,6,1682,blue,0,6,0,js-scroll-button-response,17,1,1,8,55           65           55           55           55           55,blueblueredbluebluered,1  1  0  1  1  0,2,1
11710205,Button0Blue,0,"{""Source1"": 0.50, ""Source2"": 0.55, ""Source3"": 0.65}",40,6,6,6,1878.59999999404,red,0,6,1,js-scroll-button-response,19,0,1,9,65           65           50           65           50           55,redblueredredredblue,0  1  0  0  0  1,2,1
11710205,Button0Blue,0,"{""Source1"": 0.50, ""Source2"": 0.55, ""Source3"": 0.65}",40,6,6,6,2204.59999999404,red,1,6,1,js-scroll-button-response,21,1,1,10,65           55           50           55           50           50,redredblueredblueblue,0  0  1  0  1  1,2,1
11710205,Button0Blue,0,"{""Source1"": 0.50, ""Source2"": 0.55, ""Source3"": 0.65}",40,6,6,6,1829.10000000894,red,0,6,1,js-scroll-button-response,23,0,1,11,55           55           55           50           65           55,redblueblueblueblueblue,0  1  1  1  1  1,2,1
11710205,Button0Blue,0,"{""Source1"": 0.50, ""Source2"": 0.55, ""Source3"": 0.65}",40,6,6,6,1971.79999999702,blue,1,6,0,js-scroll-button-response,25,0,1,12,50  50  50  65  65  50,blueredblueredblueblue,1  0  1  0  1  1,2,1
11710205,Button0Blue,0,"{""Source1"": 0.50, ""Source2"": 0.55, ""Source3"": 0.65}",40,6,6,6,1874.29999999702,red,1,6,1,js-scroll-button-response,27,1,1,13,65           55           55           55           55           65,bluebluebluebluebluered,1  1  1  1  1  0,2,1
11710205,Button0Blue,0,"{""Source1"": 0.50, ""Source2"": 0.55, ""Source3"": 0.65}",40,6,6,6,1844.70000000298,red,0,6,1,js-scroll-button-response,29,0,1,14,55           65           50           65           55           55,blueredredbluebluered,1  0  0  1  1  0,2,1
11710205,Button0Blue,0,"{""Source1"": 0.50, ""Source2"": 0.55, ""Source3"": 0.65}",40,6,6,6,2322.10000000894,red,1,6,1,js-scroll-button-response,31,1,1,15,55           50           55           55           65           65,redblueredredredred,0  1  0  0  0  0,2,1
11710205,Button0Blue,0,"{""Source1"": 0.50, ""Source2"": 0.55, ""Source3"": 0.65}",40,6,6,6,1843.09999999404,red,0,6,1,js-scroll-button-response,33,0,1,16,65           50           50           50           65           55,blueredblueredblueblue,1  0  1  0  1  1,2,1
11710205,Button0Blue,0,"{""Source1"": 0.50, ""Source2"": 0.55, ""Source3"": 0.65}",40,6,6,6,1929,red,1,6,1,js-scroll-button-response,35,1,1,17,50           55           50           65           50           50,redredblueredblueblue,0  0  1  0  1  1,2,1
11710205,Button0Blue,0,"{""Source1"": 0.50, ""Source2"": 0.55, ""Source3"": 0.65}",40,6,6,6,1695.29999999702,red,1,6,1,js-scroll-button-response,37,1,1,18,55           50           65           65           50           65,blueblueredredbluered,1  1  0  0  1  0,2,1
11710205,Button0Blue,0,"{""Source1"": 0.50, ""Source2"": 0.55, ""Source3"": 0.65}",40,6,6,6,1561.29999999702,red,1,6,1,js-scroll-button-response,39,1,1,19,55           55           50           50           50           55,blueredbluebluebluered,1  0  1  1  1  0,2,1
11710205,Button0Blue,0,"{""Source1"": 0.50, ""Source2"": 0.55, ""Source3"": 0.65}",40,6,6,6,1884.10000000894,blue,1,6,0,js-scroll-button-response,41,0,1,20,55           50           50           55           50           65,blueblueredbluebluered,1  1  0  1  1  0,2,1
11710205,Button0Blue,0,"{""Source1"": 0.50, ""Source2"": 0.55, ""Source3"": 0.65}",40,6,6,6,1895.59999999404,blue,1,6,0,js-scroll-button-response,43,0,1,21,55           50           50           50           50           55,redredblueblueredred,0  0  1  1  0  0,2,1
11710205,Button0Blue,0,"{""Source1"": 0.50, ""Source2"": 0.55, ""Source3"": 0.65}",40,6,6,6,1661.29999999702,blue,1,6,0,js-scroll-button-response,45,0,1,22,50           65           55           50           55           55,blueblueblueblueblueblue,1  1  1  1  1  1,2,1
11710205,Button0Blue,0,"{""Source1"": 0.50, ""Source2"": 0.55, ""Source3"": 0.65}",40,6,6,6,1693.80000001192,red,1,6,1,js-scroll-button-response,47,1,1,23,65           55           65           55           50           55,redredblueblueblueblue,0  0  1  1  1  1,2,1
11710205,Button0Blue,0,"{""Source1"": 0.50, ""Source2"": 0.55, ""Source3"": 0.65}",40,6,6,6,1881.60000000894,red,0,6,1,js-scroll-button-response,49,0,1,24,50           50           55           55           55           50,blueblueredblueredblue,1  1  0  1  0  1,2,1
11710205,Button0Blue,0,"{""Source1"": 0.50, ""Source2"": 0.55, ""Source3"": 0.65}",40,6,6,6,2529.40000000596,red,0,6,1,js-scroll-button-response,51,0,1,25,55           50           65           55           65           50,redblueblueblueredred,0  1  1  1  0  0,2,1
11710205,Button0Blue,0,"{""Source1"": 0.50, ""Source2"": 0.55, ""Source3"": 0.65}",40,6,6,6,3172.59999999404,red,1,6,1,js-scroll-button-response,53,1,1,26,65           55           50           65           50           65,redredblueredredred,0  0  1  0  0  0,2,1
11710205,Button0Blue,0,"{""Source1"": 0.50, ""Source2"": 0.55, ""Source3"": 0.65}",40,6,6,6,2299.5,red,1,6,1,js-scroll-button-response,55,1,1,27,50           50           65           65           55           55,blueblueredblueblueblue,1  1  0  1  1  1,2,1
11710205,Button0Blue,0,"{""Source1"": 0.50, ""Source2"": 0.55, ""Source3"": 0.65}",40,6,6,6,2515.5,blue,1,6,0,js-scroll-button-response,57,0,1,28,65           50           55           50           50           65,blueredblueredredred,1  0  1  0  0  0,2,1
11710205,Button0Blue,0,"{""Source1"": 0.50, ""Source2"": 0.55, ""Source3"": 0.65}",40,6,6,6,2043.29999999702,blue,0,6,0,js-scroll-button-response,59,1,1,29,50           65           55           55           50           55,blueredblueblueredblue,1  0  1  1  0  1,2,1
11710205,Button0Blue,0,"{""Source1"": 0.50, ""Source2"": 0.55, ""Source3"": 0.65}",40,6,6,6,1799.79999999702,blue,1,6,0,js-scroll-button-response,61,0,1,30,65           50           55           50           50           50,blueredredblueredred,1  0  0  1  0  0,2,1
11710205,Button0Blue,0,"{""Source1"": 0.50, ""Source2"": 0.55, ""Source3"": 0.65}",40,6,6,6,1889.89999999106,red,0,6,1,js-scroll-button-response,63,0,1,31,50           50           55           55           55           65,redredblueblueredblue,0  0  1  1  0  1,2,1
11710205,Button0Blue,0,"{""Source1"": 0.50, ""Source2"": 0.55, ""Source3"": 0.65}",40,6,6,6,2660.19999998808,red,0,6,1,js-scroll-button-response,65,0,1,32,50           50           65           55           55           65,redredredblueblueblue,0  0  0  1  1  1,2,1
11710205,Button0Blue,0,"{""Source1"": 0.50, ""Source2"": 0.55, ""Source3"": 0.65}",40,6,6,6,2464.90000000596,red,1,6,1,js-scroll-button-response,67,1,1,33,50  65  65  65  65  50,redredblueblueredblue,0  0  1  1  0  1,2,1
11710205,Button0Blue,0,"{""Source1"": 0.50, ""Source2"": 0.55, ""Source3"": 0.65}",40,6,6,6,2455.90000000596,red,0,6,1,js-scroll-button-response,69,0,1,34,65           50           50           55           50           65,blueblueblueblueredred,1  1  1  1  0  0,2,1
11710205,Button0Blue,0,"{""Source1"": 0.50, ""Source2"": 0.55, ""Source3"": 0.65}",40,6,6,6,2613.70000000298,red,0,6,1,js-scroll-button-response,71,0,1,35,55           55           65           65           50           65,redblueredblueblueblue,0  1  0  1  1  1,2,1
11710205,Button0Blue,0,"{""Source1"": 0.50, ""Source2"": 0.55, ""Source3"": 0.65}",40,6,6,6,1993.09999999404,blue,0,6,0,js-scroll-button-response,73,1,1,36,50           50           65           50           65           55,bluebluebluebluebluered,1  1  1  1  1  0,2,1
11710205,Button0Blue,0,"{""Source1"": 0.50, ""Source2"": 0.55, ""Source3"": 0.65}",40,6,6,6,2571,red,0,6,1,js-scroll-button-response,75,0,1,37,50           50           65           65           55           50,redbluebluebluebluered,0  1  1  1  1  0,2,1
11710205,Button0Blue,0,"{""Source1"": 0.50, ""Source2"": 0.55, ""Source3"": 0.65}",40,6,6,6,1745.09999999404,red,1,6,1,js-scroll-button-response,77,1,1,38,65           55           50           65           65           55,blueblueredredbluered,1  1  0  0  1  0,2,1
11710205,Button0Blue,0,"{""Source1"": 0.50, ""Source2"": 0.55, ""Source3"": 0.65}",40,6,6,6,2055.59999999404,blue,1,6,0,js-scroll-button-response,79,0,1,39,55           50           55           65           50           65,blueredredredredred,1  0  0  0  0  0,2,1
11710205,Button0Blue,0,"{""Source1"": 0.50, ""Source2"": 0.55, ""Source3"": 0.65}",40,6,6,6,2193.09999999404,red,0,6,1,js-scroll-button-response,81,0,1,40,50           55           55           55           55           65,blueredblueblueredred,1  0  1  1  0  0,2,1
11710205,Button0Blue,0,"{""Source1"": 0.50, ""Source2"": 0.55, ""Source3"": 0.65}",40,6,6,6,2312.59999999404,blue,1,6,0,js-scroll-button-response,84,0,2,41,65  50  50  65  50  50,blueredredblueblueblue,1  0  0  1  1  1,2,1
11710205,Button0Blue,0,"{""Source1"": 0.50, ""Source2"": 0.55, ""Source3"": 0.65}",40,6,6,6,2055.09999999404,red,1,6,1,js-scroll-button-response,86,1,2,42,65           50           65           55           65           50,redblueredredredred,0  1  0  0  0  0,2,1
11710205,Button0Blue,0,"{""Source1"": 0.50, ""Source2"": 0.55, ""Source3"": 0.65}",40,6,6,6,2089.79999999702,blue,1,6,0,js-scroll-button-response,88,0,2,43,55           50           55           50           50           50,redblueblueblueredred,0  1  1  1  0  0,2,1
11710205,Button0Blue,0,"{""Source1"": 0.50, ""Source2"": 0.55, ""Source3"": 0.65}",40,6,6,6,2446.80000001192,red,1,6,1,js-scroll-button-response,90,1,2,44,50  65  50  65  50  65,redredblueredbluered,0  0  1  0  1  0,2,1
11710205,Button0Blue,0,"{""Source1"": 0.50, ""Source2"": 0.55, ""Source3"": 0.65}",40,6,6,6,1948.20000000298,red,0,6,1,js-scroll-button-response,92,0,2,45,50           55           50           50           50           65,redredredblueredred,0  0  0  1  0  0,2,1
11710205,Button0Blue,0,"{""Source1"": 0.50, ""Source2"": 0.55, ""Source3"": 0.65}",40,6,6,6,1702.70000000298,blue,0,6,0,js-scroll-button-response,94,1,2,46,65           65           65           50           55           65,blueredredredredred,1  0  0  0  0  0,2,1
11710205,Button0Blue,0,"{""Source1"": 0.50, ""Source2"": 0.55, ""Source3"": 0.65}",40,6,6,6,2539.5,red,1,6,1,js-scroll-button-response,96,1,2,47,50           65           55           65           50           50,redredblueredredblue,0  0  1  0  0  1,2,1
11710205,Button0Blue,0,"{""Source1"": 0.50, ""Source2"": 0.55, ""Source3"": 0.65}",40,6,6,6,2303.79999999702,red,1,6,1,js-scroll-button-response,98,1,2,48,50           50           55           65           55           65,redredredredbluered,0  0  0  0  1  0,2,1
11710205,Button0Blue,0,"{""Source1"": 0.50, ""Source2"": 0.55, ""Source3"": 0.65}",40,6,6,6,1924.59999999404,blue,0,6,0,js-scroll-button-response,100,1,2,49,55           65           65           55           50           50,redredredblueredblue,0  0  0  1  0  1,2,1
11710205,Button0Blue,0,"{""Source1"": 0.50, ""Source2"": 0.55, ""Source3"": 0.65}",40,6,6,6,1903,red,0,6,1,js-scroll-button-response,102,0,2,50,65           50           55           50           65           50,redblueblueblueredblue,0  1  1  1  0  1,2,1
11710205,Button0Blue,0,"{""Source1"": 0.50, ""Source2"": 0.55, ""Source3"": 0.65}",40,6,6,6,2497.20000000298,red,1,6,1,js-scroll-button-response,104,1,2,51,50           55           50           50           55           65,redredbluebluebluered,0  0  1  1  1  0,2,1
11710205,Button0Blue,0,"{""Source1"": 0.50, ""Source2"": 0.55, ""Source3"": 0.65}",40,6,6,6,4470.5,blue,1,6,0,js-scroll-button-response,106,0,2,52,55           55           65           50           65           65,redredredblueredblue,0  0  0  1  0  1,2,1
11710205,Button0Blue,0,"{""Source1"": 0.50, ""Source2"": 0.55, ""Source3"": 0.65}",40,6,6,6,2082.89999999106,blue,0,6,0,js-scroll-button-response,108,1,2,53,65           65           50           50           55           65,bluebluebluebluebluered,1  1  1  1  1  0,2,1
11710205,Button0Blue,0,"{""Source1"": 0.50, ""Source2"": 0.55, ""Source3"": 0.65}",40,6,6,6,2809.59999999404,red,0,6,1,js-scroll-button-response,110,0,2,54,65           50           65           50           55           65,redredblueredredblue,0  0  1  0  0  1,2,1
11710205,Button0Blue,0,"{""Source1"": 0.50, ""Source2"": 0.55, ""Source3"": 0.65}",40,6,6,6,2165.20000000298,red,1,6,1,js-scroll-button-response,112,1,2,55,50           55           50           55           50           55,redredredredbluered,0  0  0  0  1  0,2,1
11710205,Button0Blue,0,"{""Source1"": 0.50, ""Source2"": 0.55, ""Source3"": 0.65}",40,6,6,6,2078.70000000298,blue,0,6,0,js-scroll-button-response,114,1,2,56,55           50           65           50           65           55,blueredredredbluered,1  0  0  0  1  0,2,1
11710205,Button0Blue,0,"{""Source1"": 0.50, ""Source2"": 0.55, ""Source3"": 0.65}",40,6,6,6,1685.60000000894,red,0,6,1,js-scroll-button-response,116,0,2,57,65           65           65           50           55           50,blueredredredredblue,1  0  0  0  0  1,2,1
11710205,Button0Blue,0,"{""Source1"": 0.50, ""Source2"": 0.55, ""Source3"": 0.65}",40,6,6,6,2153.20000000298,red,1,6,1,js-scroll-button-response,118,1,2,58,65           55           65           50           55           65,blueblueredblueredred,1  1  0  1  0  0,2,1
11710205,Button0Blue,0,"{""Source1"": 0.50, ""Source2"": 0.55, ""Source3"": 0.65}",40,6,6,6,1820.90000000596,red,0,6,1,js-scroll-button-response,120,0,2,59,50           65           65           65           55           65,blueblueredredblueblue,1  1  0  0  1  1,2,1
11710205,Button0Blue,0,"{""Source1"": 0.50, ""Source2"": 0.55, ""Source3"": 0.65}",40,6,6,6,2281.09999999404,red,1,6,1,js-scroll-button-response,122,1,2,60,65           50           65           65           55           55,blueblueblueredredred,1  1  1  0  0  0,2,1
11710205,Button0Blue,0,"{""Source1"": 0.50, ""Source2"": 0.55, ""Source3"": 0.65}",40,6,6,6,3347.10000000894,blue,1,6,0,js-scroll-button-response,124,0,2,61,50           50           50           65           55           55,blueblueredbluebluered,1  1  0  1  1  0,2,1
11710205,Button0Blue,0,"{""Source1"": 0.50, ""Source2"": 0.55, ""Source3"": 0.65}",40,6,6,6,1943.5,blue,0,6,0,js-scroll-button-response,126,1,2,62,65           55           50           65           65           55,blueredredblueredred,1  0  0  1  0  0,2,1
11710205,Button0Blue,0,"{""Source1"": 0.50, ""Source2"": 0.55, ""Source3"": 0.65}",40,6,6,6,1883.19999998808,red,0,6,1,js-scroll-button-response,128,0,2,63,50           55           55           65           65           65,redblueredredredred,0  1  0  0  0  0,2,1
11710205,Button0Blue,0,"{""Source1"": 0.50, ""Source2"": 0.55, ""Source3"": 0.65}",40,6,6,6,2136.29999999702,blue,1,6,0,js-scroll-button-response,130,0,2,64,50           55           50           50           50           55,blueredredredblueblue,1  0  0  0  1  1,2,1
11710205,Button0Blue,0,"{""Source1"": 0.50, ""Source2"": 0.55, ""Source3"": 0.65}",40,6,6,6,1939.29999999702,red,0,6,1,js-scroll-button-response,132,0,2,65,50           55           65           50           55           65,blueredredblueredred,1  0  0  1  0  0,2,1
11710205,Button0Blue,0,"{""Source1"": 0.50, ""Source2"": 0.55, ""Source3"": 0.65}",40,6,6,6,1891.89999999106,blue,1,6,0,js-scroll-button-response,134,0,2,66,65           50           65           65           55           65,blueredblueblueblueblue,1  0  1  1  1  1,2,1
11710205,Button0Blue,0,"{""Source1"": 0.50, ""Source2"": 0.55, ""Source3"": 0.65}",40,6,6,6,2557.59999999404,red,1,6,1,js-scroll-button-response,136,1,2,67,50           55           55           50           50           55,redredblueblueredred,0  0  1  1  0  0,2,1
11710205,Button0Blue,0,"{""Source1"": 0.50, ""Source2"": 0.55, ""Source3"": 0.65}",40,6,6,6,3163.90000000596,red,1,6,1,js-scroll-button-response,138,1,2,68,65           50           65           55           55           65,redredredredblueblue,0  0  0  0  1  1,2,1
11710205,Button0Blue,0,"{""Source1"": 0.50, ""Source2"": 0.55, ""Source3"": 0.65}",40,6,6,6,1970.59999999404,red,1,6,1,js-scroll-button-response,140,1,2,69,50           50           50           50           65           55,bluebluebluebluebluered,1  1  1  1  1  0,2,1
11710205,Button0Blue,0,"{""Source1"": 0.50, ""Source2"": 0.55, ""Source3"": 0.65}",40,6,6,6,2157.90000000596,red,1,6,1,js-scroll-button-response,142,1,2,70,50           65           50           50           65           55,blueblueblueredredred,1  1  1  0  0  0,2,1
11710205,Button0Blue,0,"{""Source1"": 0.50, ""Source2"": 0.55, ""Source3"": 0.65}",40,6,6,6,2130.60000000894,blue,0,6,0,js-scroll-button-response,144,1,2,71,50           50           65           55           55           55,bluebluebluebluebluered,1  1  1  1  1  0,2,1
11710205,Button0Blue,0,"{""Source1"": 0.50, ""Source2"": 0.55, ""Source3"": 0.65}",40,6,6,6,2035,red,1,6,1,js-scroll-button-response,146,1,2,72,50           55           55           65           65           65,redredblueredredred,0  0  1  0  0  0,2,1
11710205,Button0Blue,0,"{""Source1"": 0.50, ""Source2"": 0.55, ""Source3"": 0.65}",40,6,6,6,2036.10000000894,red,1,6,1,js-scroll-button-response,148,1,2,73,50           55           55           50           65           65,blueblueredredredred,1  1  0  0  0  0,2,1
11710205,Button0Blue,0,"{""Source1"": 0.50, ""Source2"": 0.55, ""Source3"": 0.65}",40,6,6,6,1910.29999999702,blue,0,6,0,js-scroll-button-response,150,1,2,74,55           65           50           50           55           50,blueblueblueblueredblue,1  1  1  1  0  1,2,1
11710205,Button0Blue,0,"{""Source1"": 0.50, ""Source2"": 0.55, ""Source3"": 0.65}",40,6,6,6,2011.29999999702,red,1,6,1,js-scroll-button-response,152,1,2,75,65           55           65           50           55           50,blueblueblueredredred,1  1  1  0  0  0,2,1
11710205,Button0Blue,0,"{""Source1"": 0.50, ""Source2"": 0.55, ""Source3"": 0.65}",40,6,6,6,1961.70000000298,red,1,6,1,js-scroll-button-response,154,1,2,76,65           55           50           50           65           50,redblueblueredredblue,0  1  1  0  0  1,2,1
11710205,Button0Blue,0,"{""Source1"": 0.50, ""Source2"": 0.55, ""Source3"": 0.65}",40,6,6,6,2020.10000000894,blue,1,6,0,js-scroll-button-response,156,0,2,77,55           65           55           65           65           55,redblueredredbluered,0  1  0  0  1  0,2,1
11710205,Button0Blue,0,"{""Source1"": 0.50, ""Source2"": 0.55, ""Source3"": 0.65}",40,6,6,6,1895.59999999404,red,0,6,1,js-scroll-button-response,158,0,2,78,65           55           65           55           55           50,redredbluebluebluered,0  0  1  1  1  0,2,1
11710205,Button0Blue,0,"{""Source1"": 0.50, ""Source2"": 0.55, ""Source3"": 0.65}",40,6,6,6,2140.20000000298,red,0,6,1,js-scroll-button-response,160,0,2,79,50  50  50  65  65  50,redblueredredblueblue,0  1  0  0  1  1,2,1
11710205,Button0Blue,0,"{""Source1"": 0.50, ""Source2"": 0.55, ""Source3"": 0.65}",40,6,6,6,1839.39999999106,red,1,6,1,js-scroll-button-response,162,1,2,80,55           65           65           50           65           65,redredredblueredblue,0  0  0  1  0  1,2,1
11710205,Button0Blue,0,"{""Source1"": 0.50, ""Source2"": 0.55, ""Source3"": 0.65}",40,6,6,6,2669.60000000894,blue,0,6,0,js-scroll-button-response,165,1,3,81,65           65           55           50           55           50,blueredblueblueblueblue,1  0  1  1  1  1,2,1
11710205,Button0Blue,0,"{""Source1"": 0.50, ""Source2"": 0.55, ""Source3"": 0.65}",40,6,6,6,1749.20000000298,blue,0,6,0,js-scroll-button-response,167,1,3,82,55           55           55           65           65           55,redbluebluebluebluered,0  1  1  1  1  0,2,1
11710205,Button0Blue,0,"{""Source1"": 0.50, ""Source2"": 0.55, ""Source3"": 0.65}",40,6,6,6,2045.30000001192,red,0,6,1,js-scroll-button-response,169,0,3,83,65           65           55           65           50           50,blueredblueblueblueblue,1  0  1  1  1  1,2,1
11710205,Button0Blue,0,"{""Source1"": 0.50, ""Source2"": 0.55, ""Source3"": 0.65}",40,6,6,6,2715.09999999404,red,0,6,1,js-scroll-button-response,171,0,3,84,65           65           50           55           65           50,redblueblueblueredblue,0  1  1  1  0  1,2,1
11710205,Button0Blue,0,"{""Source1"": 0.50, ""Source2"": 0.55, ""Source3"": 0.65}",40,6,6,6,2251.20000000298,blue,0,6,0,js-scroll-button-response,173,1,3,85,50           55           65           65           50           65,redredblueblueredblue,0  0  1  1  0  1,2,1
11710205,Button0Blue,0,"{""Source1"": 0.50, ""Source2"": 0.55, ""Source3"": 0.65}",40,6,6,6,2010.79999999702,blue,0,6,0,js-scroll-button-response,175,1,3,86,65           50           55           65           55           50,blueblueredblueredred,1  1  0  1  0  0,2,1
11710205,Button0Blue,0,"{""Source1"": 0.50, ""Source2"": 0.55, ""Source3"": 0.65}",40,6,6,6,1793.19999998808,blue,1,6,0,js-scroll-button-response,177,0,3,87,55           55           65           50           50           50,redblueredbluebluered,0  1  0  1  1  0,2,1
11710205,Button0Blue,0,"{""Source1"": 0.50, ""Source2"": 0.55, ""Source3"": 0.65}",40,6,6,6,2030.10000000894,red,0,6,1,js-scroll-button-response,179,0,3,88,65           65           65           55           65           65,redredredblueredred,0  0  0  1  0  0,2,1
11710205,Button0Blue,0,"{""Source1"": 0.50, ""Source2"": 0.55, ""Source3"": 0.65}",40,6,6,6,1732,red,1,6,1,js-scroll-button-response,181,1,3,89,55           55           65           55           50           50,blueredredredbluered,1  0  0  0  1  0,2,1
11710205,Button0Blue,0,"{""Source1"": 0.50, ""Source2"": 0.55, ""Source3"": 0.65}",40,6,6,6,2966.29999999702,red,1,6,1,js-scroll-button-response,183,1,3,90,55           55           65           65           50           50,redredblueredblueblue,0  0  1  0  1  1,2,1
11710205,Button0Blue,0,"{""Source1"": 0.50, ""Source2"": 0.55, ""Source3"": 0.65}",40,6,6,6,1874.20000000298,red,1,6,1,js-scroll-button-response,185,1,3,91,65           55           55           65           50           55,redredredredbluered,0  0  0  0  1  0,2,1
11710205,Button0Blue,0,"{""Source1"": 0.50, ""Source2"": 0.55, ""Source3"": 0.65}",40,6,6,6,1936.20000000298,red,0,6,1,js-scroll-button-response,187,0,3,92,50           65           55           65           50           50,redredblueredblueblue,0  0  1  0  1  1,2,1
11710205,Button0Blue,0,"{""Source1"": 0.50, ""Source2"": 0.55, ""Source3"": 0.65}",40,6,6,6,2289.20000000298,red,1,6,1,js-scroll-button-response,189,1,3,93,50           50           55           50           65           55,redredredredblueblue,0  0  0  0  1  1,2,1
11710205,Button0Blue,0,"{""Source1"": 0.50, ""Source2"": 0.55, ""Source3"": 0.65}",40,6,6,6,1835.70000000298,red,1,6,1,js-scroll-button-response,191,1,3,94,55           50           50           65           65           50,blueblueredredbluered,1  1  0  0  1  0,2,1
11710205,Button0Blue,0,"{""Source1"": 0.50, ""Source2"": 0.55, ""Source3"": 0.65}",40,6,6,6,1749.59999999404,red,1,6,1,js-scroll-button-response,193,1,3,95,55           50           65           55           50           50,blueblueblueredredblue,1  1  1  0  0  1,2,1
11710205,Button0Blue,0,"{""Source1"": 0.50, ""Source2"": 0.55, ""Source3"": 0.65}",40,6,6,6,1842.29999999702,blue,0,6,0,js-scroll-button-response,195,1,3,96,65           55           55           50           65           50,blueblueblueredredblue,1  1  1  0  0  1,2,1
11710205,Button0Blue,0,"{""Source1"": 0.50, ""Source2"": 0.55, ""Source3"": 0.65}",40,6,6,6,1800.60000000894,red,0,6,1,js-scroll-button-response,197,0,3,97,50  50  50  50  50  65,blueredredbluebluered,1  0  0  1  1  0,2,1
11710205,Button0Blue,0,"{""Source1"": 0.50, ""Source2"": 0.55, ""Source3"": 0.65}",40,6,6,6,2227.79999999702,red,1,6,1,js-scroll-button-response,199,1,3,98,50           65           50           55           50           55,redredblueredredblue,0  0  1  0  0  1,2,1
11710205,Button0Blue,0,"{""Source1"": 0.50, ""Source2"": 0.55, ""Source3"": 0.65}",40,6,6,6,1990.40000000596,blue,1,6,0,js-scroll-button-response,201,0,3,99,65           55           55           55           65           55,blueredbluebluebluered,1  0  1  1  1  0,2,1
11710205,Button0Blue,0,"{""Source1"": 0.50, ""Source2"": 0.55, ""Source3"": 0.65}",40,6,6,6,1934.59999999404,red,1,6,1,js-scroll-button-response,203,1,3,100,50           65           55           50           55           55,redblueblueredredred,0  1  1  0  0  0,2,1
11710205,Button0Blue,0,"{""Source1"": 0.50, ""Source2"": 0.55, ""Source3"": 0.65}",40,6,6,6,1801.5,red,0,6,1,js-scroll-button-response,205,0,3,101,65           55           50           65           65           50,blueblueredblueredred,1  1  0  1  0  0,2,1
11710205,Button0Blue,0,"{""Source1"": 0.50, ""Source2"": 0.55, ""Source3"": 0.65}",40,6,6,6,2256.39999999106,red,0,6,1,js-scroll-button-response,207,0,3,102,55           55           50           55           50           55,redredblueredbluered,0  0  1  0  1  0,2,1
11710205,Button0Blue,0,"{""Source1"": 0.50, ""Source2"": 0.55, ""Source3"": 0.65}",40,6,6,6,2255.69999998808,red,0,6,1,js-scroll-button-response,209,0,3,103,65           65           55           55           50           65,blueredblueredbluered,1  0  1  0  1  0,2,1
11710205,Button0Blue,0,"{""Source1"": 0.50, ""Source2"": 0.55, ""Source3"": 0.65}",40,6,6,6,2159.29999999702,red,1,6,1,js-scroll-button-response,211,1,3,104,65           65           65           50           55           55,redredredblueredred,0  0  0  1  0  0,2,1
11710205,Button0Blue,0,"{""Source1"": 0.50, ""Source2"": 0.55, ""Source3"": 0.65}",40,6,6,6,2146.90000000596,blue,1,6,0,js-scroll-button-response,213,0,3,105,65           50           50           55           65           65,blueredblueblueredblue,1  0  1  1  0  1,2,1
11710205,Button0Blue,0,"{""Source1"": 0.50, ""Source2"": 0.55, ""Source3"": 0.65}",40,6,6,6,2658.19999998808,red,0,6,1,js-scroll-button-response,215,0,3,106,55           55           65           50           65           55,redredredblueredred,0  0  0  1  0  0,2,1
11710205,Button0Blue,0,"{""Source1"": 0.50, ""Source2"": 0.55, ""Source3"": 0.65}",40,6,6,6,2449.90000000596,red,1,6,1,js-scroll-button-response,217,1,3,107,55           50           50           50           65           50,blueblueblueredredblue,1  1  1  0  0  1,2,1
11710205,Button0Blue,0,"{""Source1"": 0.50, ""Source2"": 0.55, ""Source3"": 0.65}",40,6,6,6,1836.59999999404,blue,1,6,0,js-scroll-button-response,219,0,3,108,65           50           50           50           50           55,blueredredblueblueblue,1  0  0  1  1  1,2,1
11710205,Button0Blue,0,"{""Source1"": 0.50, ""Source2"": 0.55, ""Source3"": 0.65}",40,6,6,6,3149.60000000894,blue,0,6,0,js-scroll-button-response,221,1,3,109,50           55           65           65           50           55,redblueblueredblueblue,0  1  1  0  1  1,2,1
11710205,Button0Blue,0,"{""Source1"": 0.50, ""Source2"": 0.55, ""Source3"": 0.65}",40,6,6,6,2399.29999999702,red,0,6,1,js-scroll-button-response,223,0,3,110,65           50           50           55           50           65,blueblueblueredredblue,1  1  1  0  0  1,2,1
11710205,Button0Blue,0,"{""Source1"": 0.50, ""Source2"": 0.55, ""Source3"": 0.65}",40,6,6,6,3979.79999999702,red,1,6,1,js-scroll-button-response,225,1,3,111,65           50           55           55           65           50,redblueblueredbluered,0  1  1  0  1  0,2,1
11710205,Button0Blue,0,"{""Source1"": 0.50, ""Source2"": 0.55, ""Source3"": 0.65}",40,6,6,6,2364,red,0,6,1,js-scroll-button-response,227,0,3,112,55           55           55           50           65           55,redredblueredredblue,0  0  1  0  0  1,2,1
11710205,Button0Blue,0,"{""Source1"": 0.50, ""Source2"": 0.55, ""Source3"": 0.65}",40,6,6,6,3266.70000000298,blue,1,6,0,js-scroll-button-response,229,0,3,113,65           55           50           55           65           65,redblueblueblueblueblue,0  1  1  1  1  1,2,1
11710205,Button0Blue,0,"{""Source1"": 0.50, ""Source2"": 0.55, ""Source3"": 0.65}",40,6,6,6,2049,red,0,6,1,js-scroll-button-response,231,0,3,114,50           65           55           50           65           50,redblueredblueredred,0  1  0  1  0  0,2,1
11710205,Button0Blue,0,"{""Source1"": 0.50, ""Source2"": 0.55, ""Source3"": 0.65}",40,6,6,6,1623.70000000298,blue,0,6,0,js-scroll-button-response,233,1,3,115,65           55           65           55           50           50,blueblueblueblueblueblue,1  1  1  1  1  1,2,1
11710205,Button0Blue,0,"{""Source1"": 0.50, ""Source2"": 0.55, ""Source3"": 0.65}",40,6,6,6,1821.90000000596,blue,1,6,0,js-scroll-button-response,235,0,3,116,55           55           50           50           55           50,redredredredredred,0  0  0  0  0  0,2,1
11710205,Button0Blue,0,"{""Source1"": 0.50, ""Source2"": 0.55, ""Source3"": 0.65}",40,6,6,6,1961.89999999106,red,1,6,1,js-scroll-button-response,237,1,3,117,50           50           65           55           65           55,redblueredredredred,0  1  0  0  0  0,2,1
11710205,Button0Blue,0,"{""Source1"": 0.50, ""Source2"": 0.55, ""Source3"": 0.65}",40,6,6,6,1919,red,1,6,1,js-scroll-button-response,239,1,3,118,55           65           50           55           65           65,redredblueblueredred,0  0  1  1  0  0,2,1
11710205,Button0Blue,0,"{""Source1"": 0.50, ""Source2"": 0.55, ""Source3"": 0.65}",40,6,6,6,1933.70000000298,blue,0,6,0,js-scroll-button-response,241,1,3,119,65           55           55           65           65           50,redblueblueredblueblue,0  1  1  0  1  1,2,1
11710205,Button0Blue,0,"{""Source1"": 0.50, ""Source2"": 0.55, ""Source3"": 0.65}",40,6,6,6,2912.09999999404,red,1,6,1,js-scroll-button-response,243,1,3,120,55           50           65           55           50           55,blueblueredredbluered,1  1  0  0  1  0,2,1
11710205,Button0Blue,0,"{""Source1"": 0.50, ""Source2"": 0.55, ""Source3"": 0.65}",40,6,6,6,2859.5,red,1,6,1,js-scroll-button-response,246,1,4,121,55           55           55           55           50           65,blueredredblueredred,1  0  0  1  0  0,2,1
11710205,Button0Blue,0,"{""Source1"": 0.50, ""Source2"": 0.55, ""Source3"": 0.65}",40,6,6,6,1919.5,blue,1,6,0,js-scroll-button-response,248,0,4,122,50           55           50           55           55           50,redblueblueredredred,0  1  1  0  0  0,2,1
11710205,Button0Blue,0,"{""Source1"": 0.50, ""Source2"": 0.55, ""Source3"": 0.65}",40,6,6,6,2125.59999999404,red,0,6,1,js-scroll-button-response,250,0,4,123,50           50           55           55           55           65,redblueblueblueredblue,0  1  1  1  0  1,2,1
11710205,Button0Blue,0,"{""Source1"": 0.50, ""Source2"": 0.55, ""Source3"": 0.65}",40,6,6,6,2028.69999998808,blue,1,6,0,js-scroll-button-response,252,0,4,124,50           50           55           50           65           65,redblueblueredredblue,0  1  1  0  0  1,2,1
11710205,Button0Blue,0,"{""Source1"": 0.50, ""Source2"": 0.55, ""Source3"": 0.65}",40,6,6,6,2180.79999999702,red,0,6,1,js-scroll-button-response,254,0,4,125,55           50           55           65           55           65,redredblueredredred,0  0  1  0  0  0,2,1
11710205,Button0Blue,0,"{""Source1"": 0.50, ""Source2"": 0.55, ""Source3"": 0.65}",40,6,6,6,2723.89999999106,blue,1,6,0,js-scroll-button-response,256,0,4,126,55           65           50           65           65           55,redredredbluebluered,0  0  0  1  1  0,2,1
11710205,Button0Blue,0,"{""Source1"": 0.50, ""Source2"": 0.55, ""Source3"": 0.65}",40,6,6,6,1977,red,1,6,1,js-scroll-button-response,258,1,4,127,65  50  65  65  50  50,redredbluebluebluered,0  0  1  1  1  0,2,1
11710205,Button0Blue,0,"{""Source1"": 0.50, ""Source2"": 0.55, ""Source3"": 0.65}",40,6,6,6,1939.40000000596,red,1,6,1,js-scroll-button-response,260,1,4,128,65           65           50           55           55           55,redblueredredblueblue,0  1  0  0  1  1,2,1
11710205,Button0Blue,0,"{""Source1"": 0.50, ""Source2"": 0.55, ""Source3"": 0.65}",40,6,6,6,2114.5,red,0,6,1,js-scroll-button-response,262,0,4,129,65           55           50           65           65           65,redbluebluebluebluered,0  1  1  1  1  0,2,1
11710205,Button0Blue,0,"{""Source1"": 0.50, ""Source2"": 0.55, ""Source3"": 0.65}",40,6,6,6,1556.5,red,1,6,1,js-scroll-button-response,264,1,4,130,50           65           55           65           50           50,blueredredredbluered,1  0  0  0  1  0,2,1
11710205,Button0Blue,0,"{""Source1"": 0.50, ""Source2"": 0.55, ""Source3"": 0.65}",40,6,6,6,1775.29999999702,red,1,6,1,js-scroll-button-response,266,1,4,131,65           55           55           55           55           55,redredblueredbluered,0  0  1  0  1  0,2,1
11710205,Button0Blue,0,"{""Source1"": 0.50, ""Source2"": 0.55, ""Source3"": 0.65}",40,6,6,6,2045.09999999404,red,1,6,1,js-scroll-button-response,268,1,4,132,50           55           65           65           65           65,blueredblueredblueblue,1  0  1  0  1  1,2,1
11710205,Button0Blue,0,"{""Source1"": 0.50, ""Source2"": 0.55, ""Source3"": 0.65}",40,6,6,6,1687.69999998808,red,1,6,1,js-scroll-button-response,270,1,4,133,50           50           65           55           50           50,blueredredblueredred,1  0  0  1  0  0,2,1
11710205,Button0Blue,0,"{""Source1"": 0.50, ""Source2"": 0.55, ""Source3"": 0.65}",40,6,6,6,2394.90000000596,blue,1,6,0,js-scroll-button-response,272,0,4,134,50           50           55           55           55           55,blueredblueredblueblue,1  0  1  0  1  1,2,1
11710205,Button0Blue,0,"{""Source1"": 0.50, ""Source2"": 0.55, ""Source3"": 0.65}",40,6,6,6,1661.29999999702,red,1,6,1,js-scroll-button-response,274,1,4,135,55           50           50           65           55           50,redblueredredredred,0  1  0  0  0  0,2,1
11710205,Button0Blue,0,"{""Source1"": 0.50, ""Source2"": 0.55, ""Source3"": 0.65}",40,6,6,6,2212.70000000298,red,0,6,1,js-scroll-button-response,276,0,4,136,65           65           65           55           65           50,blueblueredredredblue,1  1  0  0  0  1,2,1
11710205,Button0Blue,0,"{""Source1"": 0.50, ""Source2"": 0.55, ""Source3"": 0.65}",40,6,6,6,1964.29999999702,blue,1,6,0,js-scroll-button-response,278,0,4,137,65           50           55           65           50           65,blueredredredredblue,1  0  0  0  0  1,2,1
11710205,Button0Blue,0,"{""Source1"": 0.50, ""Source2"": 0.55, ""Source3"": 0.65}",40,6,6,6,1911.29999999702,red,1,6,1,js-scroll-button-response,280,1,4,138,50  50  65  65  65  65,blueblueredbluebluered,1  1  0  1  1  0,2,1
11710205,Button0Blue,0,"{""Source1"": 0.50, ""Source2"": 0.55, ""Source3"": 0.65}",40,6,6,6,2078.5,blue,1,6,0,js-scroll-button-response,282,0,4,139,55           55           55           50           55           50,blueredblueredredblue,1  0  1  0  0  1,2,1
11710205,Button0Blue,0,"{""Source1"": 0.50, ""Source2"": 0.55, ""Source3"": 0.65}",40,6,6,6,2488.20000000298,blue,1,6,0,js-scroll-button-response,284,0,4,140,50           55           55           65           55           50,blueredblueredredblue,1  0  1  0  0  1,2,1
