ParticipantPrivateID,randomiser_475f,ResponseButtonOrder,Sources,Trials_perBlock_,Blocks,MinimumSamples,MaximumSamples,RT,Stimulus,Response,NoOfStimuli,CorrectResponse,TrialType,TrialIndex,Accuracy,Block,TrialNumber,Sample_Reliability,Sample_Color,Sample_NumColor,Prior_Belief,Awareness
11696510,Button0Blue,0,"{""Source1"": 0.50, ""Source2"": 0.55, ""Source3"": 0.65}",40,6,6,6,16522.5,red,1,6,1,js-scroll-button-response,3,1,1,1,55           50           55           65           55           55,blueredredredbluered,1  0  0  0  1  0,1,0
11696510,Button0Blue,0,"{""Source1"": 0.50, ""Source2"": 0.55, ""Source3"": 0.65}",40,6,6,6,10607.5999999046,blue,0,6,0,js-scroll-button-response,5,1,1,2,55           55           55           50           65           50,blueredblueredredblue,1  0  1  0  0  1,1,0
11696510,Button0Blue,0,"{""Source1"": 0.50, ""Source2"": 0.55, ""Source3"": 0.65}",40,6,6,6,10687,blue,1,6,0,js-scroll-button-response,7,0,1,3,65           55           55           65           50           55,blueblueredredredblue,1  1  0  0  0  1,1,0
11696510,Button0Blue,0,"{""Source1"": 0.50, ""Source2"": 0.55, ""Source3"": 0.65}",40,6,6,6,7890.60000014305,blue,0,6,0,js-scroll-button-response,9,1,1,4,65           65           55           55           50           65,blueredblueredblueblue,1  0  1  0  1  1,1,0
11696510,Button0Blue,0,"{""Source1"": 0.50, ""Source2"": 0.55, ""Source3"": 0.65}",40,6,6,6,7596.59999990463,blue,0,6,0,js-scroll-button-response,11,1,1,5,65           50           65           55           55           50,blueblueblueblueredred,1  1  1  1  0  0,1,0
11696510,Button0Blue,0,"{""Source1"": 0.50, ""Source2"": 0.55, ""Source3"": 0.65}",40,6,6,6,6277.29999995232,blue,0,6,0,js-scroll-button-response,13,1,1,6,50           65           55           55           55           65,redblueblueblueredblue,0  1  1  1  0  1,1,0
11696510,Button0Blue,0,"{""Source1"": 0.50, ""Source2"": 0.55, ""Source3"": 0.65}",40,6,6,6,6227.5,red,0,6,1,js-scroll-button-response,15,0,1,7,55           65           55           50           50           50,blueblueredredredblue,1  1  0  0  0  1,1,0
11696510,Button0Blue,0,"{""Source1"": 0.50, ""Source2"": 0.55, ""Source3"": 0.65}",40,6,6,6,5568.19999980927,blue,1,6,0,js-scroll-button-response,17,0,1,8,65           50           55           65           55           65,redredredredredblue,0  0  0  0  0  1,1,0
11696510,Button0Blue,0,"{""Source1"": 0.50, ""Source2"": 0.55, ""Source3"": 0.65}",40,6,6,6,11751.5,blue,1,6,0,js-scroll-button-response,19,0,1,9,65           55           50           50           50           50,redblueredredredred,0  1  0  0  0  0,1,0
11696510,Button0Blue,0,"{""Source1"": 0.50, ""Source2"": 0.55, ""Source3"": 0.65}",40,6,6,6,7540.5,blue,0,6,0,js-scroll-button-response,21,1,1,10,55           55           50           65           50           50,bluebluebluebluebluered,1  1  1  1  1  0,1,0
11696510,Button0Blue,0,"{""Source1"": 0.50, ""Source2"": 0.55, ""Source3"": 0.65}",40,6,6,6,7240.5,red,1,6,1,js-scroll-button-response,23,1,1,11,50           55           55           55           50           50,redredredredblueblue,0  0  0  0  1  1,1,0
11696510,Button0Blue,0,"{""Source1"": 0.50, ""Source2"": 0.55, ""Source3"": 0.65}",40,6,6,6,6446.39999985695,blue,0,6,0,js-scroll-button-response,25,1,1,12,65           65           50           55           55           55,blueblueblueredblueblue,1  1  1  0  1  1,1,0
11696510,Button0Blue,0,"{""Source1"": 0.50, ""Source2"": 0.55, ""Source3"": 0.65}",40,6,6,6,5511.70000004768,red,1,6,1,js-scroll-button-response,27,1,1,13,65           50           65           65           55           55,blueblueblueredredred,1  1  1  0  0  0,1,0
11696510,Button0Blue,0,"{""Source1"": 0.50, ""Source2"": 0.55, ""Source3"": 0.65}",40,6,6,6,7124.70000004768,blue,1,6,0,js-scroll-button-response,29,0,1,14,50           50           65           55           50           65,blueredredredredblue,1  0  0  0  0  1,1,0
11696510,Button0Blue,0,"{""Source1"": 0.50, ""Source2"": 0.55, ""Source3"": 0.65}",40,6,6,6,7200.59999990463,red,1,6,1,js-scroll-button-response,31,1,1,15,65           55           65           55           65           50,redblueblueredredred,0  1  1  0  0  0,1,0
11696510,Button0Blue,0,"{""Source1"": 0.50, ""Source2"": 0.55, ""Source3"": 0.65}",40,6,6,6,6072,blue,0,6,0,js-scroll-button-response,33,1,1,16,65           55           65           65           50           50,blueblueredblueblueblue,1  1  0  1  1  1,1,0
11696510,Button0Blue,0,"{""Source1"": 0.50, ""Source2"": 0.55, ""Source3"": 0.65}",40,6,6,6,6076.79999995232,red,1,6,1,js-scroll-button-response,35,1,1,17,50           55           65           55           50           65,redblueredredbluered,0  1  0  0  1  0,1,0
11696510,Button0Blue,0,"{""Source1"": 0.50, ""Source2"": 0.55, ""Source3"": 0.65}",40,6,6,6,6622.09999990463,blue,0,6,0,js-scroll-button-response,37,1,1,18,65           65           50           50           50           55,blueblueblueredredred,1  1  1  0  0  0,1,0
11696510,Button0Blue,0,"{""Source1"": 0.50, ""Source2"": 0.55, ""Source3"": 0.65}",40,6,6,6,6480.79999995232,blue,1,6,0,js-scroll-button-response,39,0,1,19,50           65           55           55           65           65,redredblueblueredblue,0  0  1  1  0  1,1,0
11696510,Button0Blue,0,"{""Source1"": 0.50, ""Source2"": 0.55, ""Source3"": 0.65}",40,6,6,6,6400.20000004768,red,1,6,1,js-scroll-button-response,41,1,1,20,55           55           65           65           55           65,blueblueredbluebluered,1  1  0  1  1  0,1,0
11696510,Button0Blue,0,"{""Source1"": 0.50, ""Source2"": 0.55, ""Source3"": 0.65}",40,6,6,6,6151.90000009537,blue,1,6,0,js-scroll-button-response,43,0,1,21,65           55           50           55           50           50,redredredblueblueblue,0  0  0  1  1  1,1,0
11696510,Button0Blue,0,"{""Source1"": 0.50, ""Source2"": 0.55, ""Source3"": 0.65}",40,6,6,6,4911.20000004768,red,0,6,1,js-scroll-button-response,45,0,1,22,55           55           65           55           65           55,redbluebluebluebluered,0  1  1  1  1  0,1,0
11696510,Button0Blue,0,"{""Source1"": 0.50, ""Source2"": 0.55, ""Source3"": 0.65}",40,6,6,6,5032.5,red,1,6,1,js-scroll-button-response,47,1,1,23,65           55           50           65           65           65,redblueredredredred,0  1  0  0  0  0,1,0
11696510,Button0Blue,0,"{""Source1"": 0.50, ""Source2"": 0.55, ""Source3"": 0.65}",40,6,6,6,5744.29999995232,blue,1,6,0,js-scroll-button-response,49,0,1,24,55           55           55           50           55           50,redredblueredredblue,0  0  1  0  0  1,1,0
11696510,Button0Blue,0,"{""Source1"": 0.50, ""Source2"": 0.55, ""Source3"": 0.65}",40,6,6,6,5110.29999995232,red,0,6,1,js-scroll-button-response,51,0,1,25,55           55           50           55           50           50,blueredblueblueredred,1  0  1  1  0  0,1,0
11696510,Button0Blue,0,"{""Source1"": 0.50, ""Source2"": 0.55, ""Source3"": 0.65}",40,6,6,6,5736.90000009537,red,1,6,1,js-scroll-button-response,53,1,1,26,55           65           55           65           65           65,redredblueredbluered,0  0  1  0  1  0,1,0
11696510,Button0Blue,0,"{""Source1"": 0.50, ""Source2"": 0.55, ""Source3"": 0.65}",40,6,6,6,6075.40000009537,blue,0,6,0,js-scroll-button-response,55,1,1,27,65           55           65           50           50           50,redbluebluebluebluered,0  1  1  1  1  0,1,0
11696510,Button0Blue,0,"{""Source1"": 0.50, ""Source2"": 0.55, ""Source3"": 0.65}",40,6,6,6,5386.39999985695,blue,1,6,0,js-scroll-button-response,57,0,1,28,50           50           55           50           50           65,blueredblueredredred,1  0  1  0  0  0,1,0
11696510,Button0Blue,0,"{""Source1"": 0.50, ""Source2"": 0.55, ""Source3"": 0.65}",40,6,6,6,4774.70000004768,blue,0,6,0,js-scroll-button-response,59,1,1,29,65           55           65           65           50           65,bluebluebluebluebluered,1  1  1  1  1  0,1,0
11696510,Button0Blue,0,"{""Source1"": 0.50, ""Source2"": 0.55, ""Source3"": 0.65}",40,6,6,6,4647.5,red,1,6,1,js-scroll-button-response,61,1,1,30,65           55           65           50           65           55,blueredredredredblue,1  0  0  0  0  1,1,0
11696510,Button0Blue,0,"{""Source1"": 0.50, ""Source2"": 0.55, ""Source3"": 0.65}",40,6,6,6,5842.10000014305,red,1,6,1,js-scroll-button-response,63,1,1,31,55           65           55           50           65           65,blueredredbluebluered,1  0  0  1  1  0,1,0
11696510,Button0Blue,0,"{""Source1"": 0.50, ""Source2"": 0.55, ""Source3"": 0.65}",40,6,6,6,5312.90000009537,red,0,6,1,js-scroll-button-response,65,0,1,32,50           55           65           65           55           65,blueredredblueblueblue,1  0  0  1  1  1,1,0
11696510,Button0Blue,0,"{""Source1"": 0.50, ""Source2"": 0.55, ""Source3"": 0.65}",40,6,6,6,5942.09999990463,blue,1,6,0,js-scroll-button-response,67,0,1,33,55           50           65           55           65           50,blueredredredbluered,1  0  0  0  1  0,1,0
11696510,Button0Blue,0,"{""Source1"": 0.50, ""Source2"": 0.55, ""Source3"": 0.65}",40,6,6,6,5717.59999990463,blue,0,6,0,js-scroll-button-response,69,1,1,34,50           50           65           55           55           65,redredblueblueblueblue,0  0  1  1  1  1,1,0
11696510,Button0Blue,0,"{""Source1"": 0.50, ""Source2"": 0.55, ""Source3"": 0.65}",40,6,6,6,12279,blue,0,6,0,js-scroll-button-response,71,1,1,35,65           50           55           50           55           55,blueblueredblueredblue,1  1  0  1  0  1,1,0
11696510,Button0Blue,0,"{""Source1"": 0.50, ""Source2"": 0.55, ""Source3"": 0.65}",40,6,6,6,4975.20000004768,blue,1,6,0,js-scroll-button-response,73,0,1,36,55           50           55           55           55           50,redredredblueredred,0  0  0  1  0  0,1,0
11696510,Button0Blue,0,"{""Source1"": 0.50, ""Source2"": 0.55, ""Source3"": 0.65}",40,6,6,6,4425.20000004768,blue,1,6,0,js-scroll-button-response,75,0,1,37,65           55           50           55           50           55,redblueblueredredblue,0  1  1  0  0  1,1,0
11696510,Button0Blue,0,"{""Source1"": 0.50, ""Source2"": 0.55, ""Source3"": 0.65}",40,6,6,6,4663.29999995232,blue,0,6,0,js-scroll-button-response,77,1,1,38,50           65           65           55           50           65,redredblueblueblueblue,0  0  1  1  1  1,1,0
11696510,Button0Blue,0,"{""Source1"": 0.50, ""Source2"": 0.55, ""Source3"": 0.65}",40,6,6,6,4216.5,blue,0,6,0,js-scroll-button-response,79,1,1,39,55           65           55           65           55           50,redblueredbluebluered,0  1  0  1  1  0,1,0
11696510,Button0Blue,0,"{""Source1"": 0.50, ""Source2"": 0.55, ""Source3"": 0.65}",40,6,6,6,5240.70000004768,blue,1,6,0,js-scroll-button-response,81,0,1,40,50           50           65           55           65           50,redblueblueredredred,0  1  1  0  0  0,1,0
11696510,Button0Blue,0,"{""Source1"": 0.50, ""Source2"": 0.55, ""Source3"": 0.65}",40,6,6,6,5956.5,blue,0,6,0,js-scroll-button-response,84,1,2,41,65           50           55           50           50           55,blueblueblueblueredblue,1  1  1  1  0  1,1,0
11696510,Button0Blue,0,"{""Source1"": 0.50, ""Source2"": 0.55, ""Source3"": 0.65}",40,6,6,6,3628.80000019073,red,1,6,1,js-scroll-button-response,86,1,2,42,50           50           65           65           55           65,redredredredredred,0  0  0  0  0  0,1,0
11696510,Button0Blue,0,"{""Source1"": 0.50, ""Source2"": 0.55, ""Source3"": 0.65}",40,6,6,6,4144.5,blue,0,6,0,js-scroll-button-response,88,1,2,43,55           55           55           65           65           65,blueredblueblueredred,1  0  1  1  0  0,1,0
11696510,Button0Blue,0,"{""Source1"": 0.50, ""Source2"": 0.55, ""Source3"": 0.65}",40,6,6,6,3932.10000014305,blue,1,6,0,js-scroll-button-response,90,0,2,44,50           65           65           55           65           50,redredblueredredblue,0  0  1  0  0  1,1,0
11696510,Button0Blue,0,"{""Source1"": 0.50, ""Source2"": 0.55, ""Source3"": 0.65}",40,6,6,6,4222.5,blue,0,6,0,js-scroll-button-response,92,1,2,45,65           55           50           50           55           65,blueblueredredblueblue,1  1  0  0  1  1,1,0
11696510,Button0Blue,0,"{""Source1"": 0.50, ""Source2"": 0.55, ""Source3"": 0.65}",40,6,6,6,5864.59999990463,red,1,6,1,js-scroll-button-response,94,1,2,46,65           50           65           65           55           65,redredblueredredred,0  0  1  0  0  0,1,0
11696510,Button0Blue,0,"{""Source1"": 0.50, ""Source2"": 0.55, ""Source3"": 0.65}",40,6,6,6,5727.20000004768,blue,0,6,0,js-scroll-button-response,96,1,2,47,65           50           50           55           50           55,blueblueredblueredblue,1  1  0  1  0  1,1,0
11696510,Button0Blue,0,"{""Source1"": 0.50, ""Source2"": 0.55, ""Source3"": 0.65}",40,6,6,6,34456.9000000954,blue,1,6,0,js-scroll-button-response,98,0,2,48,65           65           50           50           55           50,blueblueblueredbluered,1  1  1  0  1  0,1,0
11696510,Button0Blue,0,"{""Source1"": 0.50, ""Source2"": 0.55, ""Source3"": 0.65}",40,6,6,6,4260.70000004768,red,1,6,1,js-scroll-button-response,100,1,2,49,50           55           65           50           65           50,redblueredblueredred,0  1  0  1  0  0,1,0
11696510,Button0Blue,0,"{""Source1"": 0.50, ""Source2"": 0.55, ""Source3"": 0.65}",40,6,6,6,4791.40000009537,blue,1,6,0,js-scroll-button-response,102,0,2,50,50           65           50           55           55           65,redredredredblueblue,0  0  0  0  1  1,1,0
11696510,Button0Blue,0,"{""Source1"": 0.50, ""Source2"": 0.55, ""Source3"": 0.65}",40,6,6,6,4199,blue,0,6,0,js-scroll-button-response,104,1,2,51,65           65           65           55           50           65,redblueblueredredblue,0  1  1  0  0  1,1,0
11696510,Button0Blue,0,"{""Source1"": 0.50, ""Source2"": 0.55, ""Source3"": 0.65}",40,6,6,6,3767.60000014305,blue,0,6,0,js-scroll-button-response,106,1,2,52,65           55           65           65           65           55,redblueblueblueblueblue,0  1  1  1  1  1,1,0
11696510,Button0Blue,0,"{""Source1"": 0.50, ""Source2"": 0.55, ""Source3"": 0.65}",40,6,6,6,4112.5,red,0,6,1,js-scroll-button-response,108,0,2,53,65           50           50           55           55           65,redblueredredbluered,0  1  0  0  1  0,1,0
11696510,Button0Blue,0,"{""Source1"": 0.50, ""Source2"": 0.55, ""Source3"": 0.65}",40,6,6,6,171981.299999952,red,1,6,1,js-scroll-button-response,110,1,2,54,65           50           65           50           55           55,blueredredblueredblue,1  0  0  1  0  1,1,0
11696510,Button0Blue,0,"{""Source1"": 0.50, ""Source2"": 0.55, ""Source3"": 0.65}",40,6,6,6,3254,blue,0,6,0,js-scroll-button-response,112,1,2,55,65           65           65           50           55           65,blueredblueblueblueblue,1  0  1  1  1  1,1,0
11696510,Button0Blue,0,"{""Source1"": 0.50, ""Source2"": 0.55, ""Source3"": 0.65}",40,6,6,6,7383.10000014305,red,1,6,1,js-scroll-button-response,114,1,2,56,65           50           55           50           55           55,blueblueredredblueblue,1  1  0  0  1  1,1,0
11696510,Button0Blue,0,"{""Source1"": 0.50, ""Source2"": 0.55, ""Source3"": 0.65}",40,6,6,6,3422.5,blue,0,6,0,js-scroll-button-response,116,1,2,57,50           50           65           65           55           50,blueblueredblueblueblue,1  1  0  1  1  1,1,0
11696510,Button0Blue,0,"{""Source1"": 0.50, ""Source2"": 0.55, ""Source3"": 0.65}",40,6,6,6,3488,blue,0,6,0,js-scroll-button-response,118,1,2,58,55           50           55           65           50           55,blueblueblueredbluered,1  1  1  0  1  0,1,0
11696510,Button0Blue,0,"{""Source1"": 0.50, ""Source2"": 0.55, ""Source3"": 0.65}",40,6,6,6,4366,blue,1,6,0,js-scroll-button-response,120,0,2,59,50  50  50  50  65  65,redblueblueredbluered,0  1  1  0  1  0,1,0
11696510,Button0Blue,0,"{""Source1"": 0.50, ""Source2"": 0.55, ""Source3"": 0.65}",40,6,6,6,3600.20000004768,red,1,6,1,js-scroll-button-response,122,1,2,60,65           55           55           55           50           50,redredblueredredred,0  0  1  0  0  0,1,0
11696510,Button0Blue,0,"{""Source1"": 0.50, ""Source2"": 0.55, ""Source3"": 0.65}",40,6,6,6,11974.5,blue,1,6,0,js-scroll-button-response,124,0,2,61,65           50           50           55           55           50,redredredbluebluered,0  0  0  1  1  0,1,0
11696510,Button0Blue,0,"{""Source1"": 0.50, ""Source2"": 0.55, ""Source3"": 0.65}",40,6,6,6,4713.40000009537,blue,0,6,0,js-scroll-button-response,126,1,2,62,55           55           50           50           50           50,redblueredredblueblue,0  1  0  0  1  1,1,0
11696510,Button0Blue,0,"{""Source1"": 0.50, ""Source2"": 0.55, ""Source3"": 0.65}",40,6,6,6,3819.79999995232,red,1,6,1,js-scroll-button-response,128,1,2,63,50           50           55           55           65           55,blueredredredredblue,1  0  0  0  0  1,1,0
11696510,Button0Blue,0,"{""Source1"": 0.50, ""Source2"": 0.55, ""Source3"": 0.65}",40,6,6,6,3630.10000014305,blue,0,6,0,js-scroll-button-response,130,1,2,64,65           55           55           55           50           50,blueredredbluebluered,1  0  0  1  1  0,1,0
11696510,Button0Blue,0,"{""Source1"": 0.50, ""Source2"": 0.55, ""Source3"": 0.65}",40,6,6,6,4030.79999995232,blue,0,6,0,js-scroll-button-response,132,1,2,65,55           50           65           65           65           50,blueredblueredblueblue,1  0  1  0  1  1,1,0
11696510,Button0Blue,0,"{""Source1"": 0.50, ""Source2"": 0.55, ""Source3"": 0.65}",40,6,6,6,250871.700000048,blue,0,6,0,js-scroll-button-response,134,1,2,66,65           55           50           50           65           50,blueredblueblueredblue,1  0  1  1  0  1,1,0
11696510,Button0Blue,0,"{""Source1"": 0.50, ""Source2"": 0.55, ""Source3"": 0.65}",40,6,6,6,4061.09999990463,blue,0,6,0,js-scroll-button-response,136,1,2,67,65           50           55           55           50           65,blueredblueblueredred,1  0  1  1  0  0,1,0
11696510,Button0Blue,0,"{""Source1"": 0.50, ""Source2"": 0.55, ""Source3"": 0.65}",40,6,6,6,3257.5,blue,0,6,0,js-scroll-button-response,138,1,2,68,50           55           55           50           65           50,bluebluebluebluebluered,1  1  1  1  1  0,1,0
11696510,Button0Blue,0,"{""Source1"": 0.50, ""Source2"": 0.55, ""Source3"": 0.65}",40,6,6,6,4119.89999985695,red,0,6,1,js-scroll-button-response,140,0,2,69,50           65           55           55           55           55,redblueblueredredblue,0  1  1  0  0  1,1,0
11696510,Button0Blue,0,"{""Source1"": 0.50, ""Source2"": 0.55, ""Source3"": 0.65}",40,6,6,6,4100.59999990463,blue,1,6,0,js-scroll-button-response,142,0,2,70,55           55           50           65           55           65,redredbluebluebluered,0  0  1  1  1  0,1,0
11696510,Button0Blue,0,"{""Source1"": 0.50, ""Source2"": 0.55, ""Source3"": 0.65}",40,6,6,6,5575.20000004768,blue,0,6,0,js-scroll-button-response,144,1,2,71,50  65  50  50  65  50,redredblueblueredblue,0  0  1  1  0  1,1,0
11696510,Button0Blue,0,"{""Source1"": 0.50, ""Source2"": 0.55, ""Source3"": 0.65}",40,6,6,6,4117.29999995232,blue,0,6,0,js-scroll-button-response,146,1,2,72,55           65           50           50           55           55,blueblueredblueblueblue,1  1  0  1  1  1,1,0
11696510,Button0Blue,0,"{""Source1"": 0.50, ""Source2"": 0.55, ""Source3"": 0.65}",40,6,6,6,4998.89999985695,red,0,6,1,js-scroll-button-response,148,0,2,73,65           65           55           65           50           55,redblueredredbluered,0  1  0  0  1  0,1,0
11696510,Button0Blue,0,"{""Source1"": 0.50, ""Source2"": 0.55, ""Source3"": 0.65}",40,6,6,6,3735.89999985695,blue,1,6,0,js-scroll-button-response,150,0,2,74,50           65           55           55           65           55,redredredredbluered,0  0  0  0  1  0,1,0
11696510,Button0Blue,0,"{""Source1"": 0.50, ""Source2"": 0.55, ""Source3"": 0.65}",40,6,6,6,256984.800000191,red,1,6,1,js-scroll-button-response,152,1,2,75,55           55           50           55           55           65,redblueredbluebluered,0  1  0  1  1  0,1,0
11696510,Button0Blue,0,"{""Source1"": 0.50, ""Source2"": 0.55, ""Source3"": 0.65}",40,6,6,6,5543.90000009537,blue,0,6,0,js-scroll-button-response,154,1,2,76,50  50  50  50  65  50,redblueredblueblueblue,0  1  0  1  1  1,1,0
11696510,Button0Blue,0,"{""Source1"": 0.50, ""Source2"": 0.55, ""Source3"": 0.65}",40,6,6,6,3863.90000009537,blue,0,6,0,js-scroll-button-response,156,1,2,77,50  50  50  50  50  65,blueredblueblueblueblue,1  0  1  1  1  1,1,0
11696510,Button0Blue,0,"{""Source1"": 0.50, ""Source2"": 0.55, ""Source3"": 0.65}",40,6,6,6,3872.09999990463,red,0,6,1,js-scroll-button-response,158,0,2,78,50           65           50           55           55           55,blueredblueblueblueblue,1  0  1  1  1  1,1,0
11696510,Button0Blue,0,"{""Source1"": 0.50, ""Source2"": 0.55, ""Source3"": 0.65}",40,6,6,6,4534.20000004768,red,1,6,1,js-scroll-button-response,160,1,2,79,55           50           65           55           55           55,blueredredblueredred,1  0  0  1  0  0,1,0
11696510,Button0Blue,0,"{""Source1"": 0.50, ""Source2"": 0.55, ""Source3"": 0.65}",40,6,6,6,4175.70000004768,red,0,6,1,js-scroll-button-response,162,0,2,80,55           55           65           55           65           65,blueblueredredbluered,1  1  0  0  1  0,1,0
11696510,Button0Blue,0,"{""Source1"": 0.50, ""Source2"": 0.55, ""Source3"": 0.65}",40,6,6,6,4749.70000004768,blue,0,6,0,js-scroll-button-response,165,1,3,81,55           55           55           65           50           65,blueblueblueredredblue,1  1  1  0  0  1,1,0
11696510,Button0Blue,0,"{""Source1"": 0.50, ""Source2"": 0.55, ""Source3"": 0.65}",40,6,6,6,3368.79999995232,blue,0,6,0,js-scroll-button-response,167,1,3,82,50           50           55           50           65           55,redredblueblueblueblue,0  0  1  1  1  1,1,0
11696510,Button0Blue,0,"{""Source1"": 0.50, ""Source2"": 0.55, ""Source3"": 0.65}",40,6,6,6,3224.39999985695,blue,1,6,0,js-scroll-button-response,169,0,3,83,65           50           55           50           65           50,redredredredredred,0  0  0  0  0  0,1,0
11696510,Button0Blue,0,"{""Source1"": 0.50, ""Source2"": 0.55, ""Source3"": 0.65}",40,6,6,6,7582.10000014305,blue,0,6,0,js-scroll-button-response,171,1,3,84,65  50  50  65  50  50,redblueredblueblueblue,0  1  0  1  1  1,1,0
11696510,Button0Blue,0,"{""Source1"": 0.50, ""Source2"": 0.55, ""Source3"": 0.65}",40,6,6,6,5968.5,red,1,6,1,js-scroll-button-response,173,1,3,85,65  65  65  50  50  65,redblueredblueredred,0  1  0  1  0  0,1,0
11696510,Button0Blue,0,"{""Source1"": 0.50, ""Source2"": 0.55, ""Source3"": 0.65}",40,6,6,6,5495.79999995232,red,1,6,1,js-scroll-button-response,175,1,3,86,55           55           55           55           65           55,redredredredblueblue,0  0  0  0  1  1,1,0
11696510,Button0Blue,0,"{""Source1"": 0.50, ""Source2"": 0.55, ""Source3"": 0.65}",40,6,6,6,3502.70000004768,blue,0,6,0,js-scroll-button-response,177,1,3,87,50           55           65           55           65           55,redblueblueblueblueblue,0  1  1  1  1  1,1,0
11696510,Button0Blue,0,"{""Source1"": 0.50, ""Source2"": 0.55, ""Source3"": 0.65}",40,6,6,6,3413.39999985695,red,1,6,1,js-scroll-button-response,179,1,3,88,50           65           50           55           55           65,redredredredblueblue,0  0  0  0  1  1,1,0
11696510,Button0Blue,0,"{""Source1"": 0.50, ""Source2"": 0.55, ""Source3"": 0.65}",40,6,6,6,5263.29999995232,red,1,6,1,js-scroll-button-response,181,1,3,89,65           55           65           50           50           65,redblueredblueredred,0  1  0  1  0  0,1,0
11696510,Button0Blue,0,"{""Source1"": 0.50, ""Source2"": 0.55, ""Source3"": 0.65}",40,6,6,6,3617.59999990463,blue,0,6,0,js-scroll-button-response,183,1,3,90,65           50           55           50           55           55,blueredblueredblueblue,1  0  1  0  1  1,1,0
11696510,Button0Blue,0,"{""Source1"": 0.50, ""Source2"": 0.55, ""Source3"": 0.65}",40,6,6,6,4272,blue,0,6,0,js-scroll-button-response,185,1,3,91,55           50           50           55           65           65,blueredblueredredblue,1  0  1  0  0  1,1,0
11696510,Button0Blue,0,"{""Source1"": 0.50, ""Source2"": 0.55, ""Source3"": 0.65}",40,6,6,6,4063.20000004768,red,1,6,1,js-scroll-button-response,187,1,3,92,55           50           55           65           55           55,redblueredredredred,0  1  0  0  0  0,1,0
11696510,Button0Blue,0,"{""Source1"": 0.50, ""Source2"": 0.55, ""Source3"": 0.65}",40,6,6,6,5147.40000009537,blue,1,6,0,js-scroll-button-response,189,0,3,93,55           50           50           65           65           55,redredredredbluered,0  0  0  0  1  0,1,0
11696510,Button0Blue,0,"{""Source1"": 0.50, ""Source2"": 0.55, ""Source3"": 0.65}",40,6,6,6,4079,blue,0,6,0,js-scroll-button-response,191,1,3,94,55           50           65           55           50           65,redblueblueredblueblue,0  1  1  0  1  1,1,0
11696510,Button0Blue,0,"{""Source1"": 0.50, ""Source2"": 0.55, ""Source3"": 0.65}",40,6,6,6,3949.89999985695,blue,1,6,0,js-scroll-button-response,193,0,3,95,50           50           65           50           55           50,redblueblueredredred,0  1  1  0  0  0,1,0
11696510,Button0Blue,0,"{""Source1"": 0.50, ""Source2"": 0.55, ""Source3"": 0.65}",40,6,6,6,4369.70000004768,blue,0,6,0,js-scroll-button-response,195,1,3,96,55           50           50           65           65           50,redredblueblueblueblue,0  0  1  1  1  1,1,0
11696510,Button0Blue,0,"{""Source1"": 0.50, ""Source2"": 0.55, ""Source3"": 0.65}",40,6,6,6,4639.09999990463,red,0,6,1,js-scroll-button-response,197,0,3,97,65  50  50  65  50  50,redredblueredredred,0  0  1  0  0  0,1,0
11696510,Button0Blue,0,"{""Source1"": 0.50, ""Source2"": 0.55, ""Source3"": 0.65}",40,6,6,6,4261.70000004768,blue,0,6,0,js-scroll-button-response,199,1,3,98,55           65           65           65           50           65,blueblueredblueredblue,1  1  0  1  0  1,1,0
11696510,Button0Blue,0,"{""Source1"": 0.50, ""Source2"": 0.55, ""Source3"": 0.65}",40,6,6,6,4215,red,1,6,1,js-scroll-button-response,201,1,3,99,50           55           55           65           55           65,redredredredredred,0  0  0  0  0  0,1,0
11696510,Button0Blue,0,"{""Source1"": 0.50, ""Source2"": 0.55, ""Source3"": 0.65}",40,6,6,6,4575.70000004768,blue,1,6,0,js-scroll-button-response,203,0,3,100,50           55           50           50           55           50,redredblueredbluered,0  0  1  0  1  0,1,0
11696510,Button0Blue,0,"{""Source1"": 0.50, ""Source2"": 0.55, ""Source3"": 0.65}",40,6,6,6,4655.09999990463,blue,0,6,0,js-scroll-button-response,205,1,3,101,50           65           55           55           55           55,redblueblueblueblueblue,0  1  1  1  1  1,1,0
11696510,Button0Blue,0,"{""Source1"": 0.50, ""Source2"": 0.55, ""Source3"": 0.65}",40,6,6,6,4623.30000019073,blue,0,6,0,js-scroll-button-response,207,1,3,102,50           55           65           50           50           50,blueredblueredredblue,1  0  1  0  0  1,1,0
11696510,Button0Blue,0,"{""Source1"": 0.50, ""Source2"": 0.55, ""Source3"": 0.65}",40,6,6,6,4480.60000014305,blue,1,6,0,js-scroll-button-response,209,0,3,103,50           65           65           55           50           55,blueblueredredblueblue,1  1  0  0  1  1,1,0
11696510,Button0Blue,0,"{""Source1"": 0.50, ""Source2"": 0.55, ""Source3"": 0.65}",40,6,6,6,4609.29999995232,red,0,6,1,js-scroll-button-response,211,0,3,104,55           55           55           65           65           50,blueredblueredredblue,1  0  1  0  0  1,1,0
11696510,Button0Blue,0,"{""Source1"": 0.50, ""Source2"": 0.55, ""Source3"": 0.65}",40,6,6,6,4257.09999990463,blue,0,6,0,js-scroll-button-response,213,1,3,105,65           55           50           65           65           55,bluebluebluebluebluered,1  1  1  1  1  0,1,0
11696510,Button0Blue,0,"{""Source1"": 0.50, ""Source2"": 0.55, ""Source3"": 0.65}",40,6,6,6,3944.70000004768,red,0,6,1,js-scroll-button-response,215,0,3,106,50           50           55           65           50           65,redredblueredredblue,0  0  1  0  0  1,1,0
11696510,Button0Blue,0,"{""Source1"": 0.50, ""Source2"": 0.55, ""Source3"": 0.65}",40,6,6,6,3648.89999985695,blue,1,6,0,js-scroll-button-response,217,0,3,107,55           50           65           55           50           50,redblueredredbluered,0  1  0  0  1  0,1,0
11696510,Button0Blue,0,"{""Source1"": 0.50, ""Source2"": 0.55, ""Source3"": 0.65}",40,6,6,6,3679,blue,1,6,0,js-scroll-button-response,219,0,3,108,65  65  50  65  65  50,blueredredredbluered,1  0  0  0  1  0,1,0
11696510,Button0Blue,0,"{""Source1"": 0.50, ""Source2"": 0.55, ""Source3"": 0.65}",40,6,6,6,3679.80000019073,red,0,6,1,js-scroll-button-response,221,0,3,109,50           65           55           50           55           65,blueredblueblueblueblue,1  0  1  1  1  1,1,0
11696510,Button0Blue,0,"{""Source1"": 0.50, ""Source2"": 0.55, ""Source3"": 0.65}",40,6,6,6,3927.59999990463,blue,1,6,0,js-scroll-button-response,223,0,3,110,50           50           50           55           65           55,redredblueblueredred,0  0  1  1  0  0,1,0
11696510,Button0Blue,0,"{""Source1"": 0.50, ""Source2"": 0.55, ""Source3"": 0.65}",40,6,6,6,4959.79999995232,red,0,6,1,js-scroll-button-response,225,0,3,111,55           50           65           65           50           65,blueblueredbluebluered,1  1  0  1  1  0,1,0
11696510,Button0Blue,0,"{""Source1"": 0.50, ""Source2"": 0.55, ""Source3"": 0.65}",40,6,6,6,3722.29999995232,red,0,6,1,js-scroll-button-response,227,0,3,112,50  50  50  65  50  50,blueblueblueredblueblue,1  1  1  0  1  1,1,0
11696510,Button0Blue,0,"{""Source1"": 0.50, ""Source2"": 0.55, ""Source3"": 0.65}",40,6,6,6,4281.20000004768,red,0,6,1,js-scroll-button-response,229,0,3,113,65           65           55           65           65           55,blueblueblueblueredblue,1  1  1  1  0  1,1,0
11696510,Button0Blue,0,"{""Source1"": 0.50, ""Source2"": 0.55, ""Source3"": 0.65}",40,6,6,6,4239.20000004768,blue,1,6,0,js-scroll-button-response,231,0,3,114,50  50  50  50  65  50,blueblueredredredblue,1  1  0  0  0  1,1,0
11696510,Button0Blue,0,"{""Source1"": 0.50, ""Source2"": 0.55, ""Source3"": 0.65}",40,6,6,6,4121.70000004768,red,0,6,1,js-scroll-button-response,233,0,3,115,65           65           55           50           55           55,blueredredbluebluered,1  0  0  1  1  0,1,0
11696510,Button0Blue,0,"{""Source1"": 0.50, ""Source2"": 0.55, ""Source3"": 0.65}",40,6,6,6,3768.89999985695,blue,0,6,0,js-scroll-button-response,235,1,3,116,55           50           50           55           65           50,redblueblueblueblueblue,0  1  1  1  1  1,1,0
11696510,Button0Blue,0,"{""Source1"": 0.50, ""Source2"": 0.55, ""Source3"": 0.65}",40,6,6,6,3886.70000004768,blue,1,6,0,js-scroll-button-response,237,0,3,117,50           50           55           50           50           65,redredredblueredred,0  0  0  1  0  0,1,0
11696510,Button0Blue,0,"{""Source1"": 0.50, ""Source2"": 0.55, ""Source3"": 0.65}",40,6,6,6,3584,blue,0,6,0,js-scroll-button-response,239,1,3,118,50           55           65           55           50           65,redblueblueblueredblue,0  1  1  1  0  1,1,0
11696510,Button0Blue,0,"{""Source1"": 0.50, ""Source2"": 0.55, ""Source3"": 0.65}",40,6,6,6,3975.70000004768,blue,0,6,0,js-scroll-button-response,241,1,3,119,55           55           50           65           50           50,blueredblueblueredred,1  0  1  1  0  0,1,0
11696510,Button0Blue,0,"{""Source1"": 0.50, ""Source2"": 0.55, ""Source3"": 0.65}",40,6,6,6,3601.29999995232,blue,0,6,0,js-scroll-button-response,243,1,3,120,50           50           65           50           50           55,blueblueblueblueredblue,1  1  1  1  0  1,1,0
11696510,Button0Blue,0,"{""Source1"": 0.50, ""Source2"": 0.55, ""Source3"": 0.65}",40,6,6,6,5974.5,red,0,6,1,js-scroll-button-response,246,0,4,121,55           65           65           65           50           50,redredredblueredblue,0  0  0  1  0  1,1,0
11696510,Button0Blue,0,"{""Source1"": 0.50, ""Source2"": 0.55, ""Source3"": 0.65}",40,6,6,6,3759.5,blue,1,6,0,js-scroll-button-response,248,0,4,122,50           65           50           55           50           50,blueredredbluebluered,1  0  0  1  1  0,1,0
11696510,Button0Blue,0,"{""Source1"": 0.50, ""Source2"": 0.55, ""Source3"": 0.65}",40,6,6,6,3983.20000004768,blue,1,6,0,js-scroll-button-response,250,0,4,123,65  50  50  65  50  50,redredredredredblue,0  0  0  0  0  1,1,0
11696510,Button0Blue,0,"{""Source1"": 0.50, ""Source2"": 0.55, ""Source3"": 0.65}",40,6,6,6,3977.10000014305,blue,0,6,0,js-scroll-button-response,252,1,4,124,50           55           50           65           65           50,redredbluebluebluered,0  0  1  1  1  0,1,0
11696510,Button0Blue,0,"{""Source1"": 0.50, ""Source2"": 0.55, ""Source3"": 0.65}",40,6,6,6,4600.30000019073,blue,1,6,0,js-scroll-button-response,254,0,4,125,55           50           55           65           65           65,redblueredblueredred,0  1  0  1  0  0,1,0
11696510,Button0Blue,0,"{""Source1"": 0.50, ""Source2"": 0.55, ""Source3"": 0.65}",40,6,6,6,6886.89999985695,blue,0,6,0,js-scroll-button-response,256,1,4,126,50           55           65           50           55           65,blueredredredredblue,1  0  0  0  0  1,1,0
11696510,Button0Blue,0,"{""Source1"": 0.50, ""Source2"": 0.55, ""Source3"": 0.65}",40,6,6,6,3807.90000009537,red,1,6,1,js-scroll-button-response,258,1,4,127,55           55           50           55           50           65,redredblueredredblue,0  0  1  0  0  1,1,0
11696510,Button0Blue,0,"{""Source1"": 0.50, ""Source2"": 0.55, ""Source3"": 0.65}",40,6,6,6,4590.60000014305,blue,0,6,0,js-scroll-button-response,260,1,4,128,55           55           50           55           65           50,blueblueredredbluered,1  1  0  0  1  0,1,0
11696510,Button0Blue,0,"{""Source1"": 0.50, ""Source2"": 0.55, ""Source3"": 0.65}",40,6,6,6,4214.29999995232,blue,0,6,0,js-scroll-button-response,262,1,4,129,55           50           50           50           50           65,blueredblueblueredblue,1  0  1  1  0  1,1,0
11696510,Button0Blue,0,"{""Source1"": 0.50, ""Source2"": 0.55, ""Source3"": 0.65}",40,6,6,6,4177.59999990463,blue,1,6,0,js-scroll-button-response,264,0,4,130,55           65           65           55           65           50,redredredblueblueblue,0  0  0  1  1  1,1,0
11696510,Button0Blue,0,"{""Source1"": 0.50, ""Source2"": 0.55, ""Source3"": 0.65}",40,6,6,6,3815.69999980927,blue,0,6,0,js-scroll-button-response,266,1,4,131,55           50           50           65           65           55,blueblueblueblueredblue,1  1  1  1  0  1,1,0
11696510,Button0Blue,0,"{""Source1"": 0.50, ""Source2"": 0.55, ""Source3"": 0.65}",40,6,6,6,4119.20000004768,blue,0,6,0,js-scroll-button-response,268,1,4,132,65           55           50           50           50           65,blueredredblueblueblue,1  0  0  1  1  1,1,0
11696510,Button0Blue,0,"{""Source1"": 0.50, ""Source2"": 0.55, ""Source3"": 0.65}",40,6,6,6,4174.79999995232,red,1,6,1,js-scroll-button-response,270,1,4,133,65           55           55           55           50           65,redblueredredredblue,0  1  0  0  0  1,1,0
11696510,Button0Blue,0,"{""Source1"": 0.50, ""Source2"": 0.55, ""Source3"": 0.65}",40,6,6,6,4640.90000009537,blue,1,6,0,js-scroll-button-response,272,0,4,134,65  50  50  65  50  50,redredredbluebluered,0  0  0  1  1  0,1,0
11696510,Button0Blue,0,"{""Source1"": 0.50, ""Source2"": 0.55, ""Source3"": 0.65}",40,6,6,6,3870.5,blue,0,6,0,js-scroll-button-response,274,1,4,135,50           55           65           65           50           50,blueredbluebluebluered,1  0  1  1  1  0,1,0
11696510,Button0Blue,0,"{""Source1"": 0.50, ""Source2"": 0.55, ""Source3"": 0.65}",40,6,6,6,8466.90000009537,red,1,6,1,js-scroll-button-response,276,1,4,136,65           55           55           65           55           65,redredblueredredred,0  0  1  0  0  0,1,0
11696510,Button0Blue,0,"{""Source1"": 0.50, ""Source2"": 0.55, ""Source3"": 0.65}",40,6,6,6,4287.59999990463,blue,0,6,0,js-scroll-button-response,278,1,4,137,55           50           55           65           50           65,blueredredredblueblue,1  0  0  0  1  1,1,0
11696510,Button0Blue,0,"{""Source1"": 0.50, ""Source2"": 0.55, ""Source3"": 0.65}",40,6,6,6,3992.40000009537,red,0,6,1,js-scroll-button-response,280,0,4,138,50           65           55           50           65           55,blueblueblueblueredblue,1  1  1  1  0  1,1,0
11696510,Button0Blue,0,"{""Source1"": 0.50, ""Source2"": 0.55, ""Source3"": 0.65}",40,6,6,6,4698.29999995232,red,0,6,1,js-scroll-button-response,282,0,4,139,65  50  65  65  50  65,redblueredblueblueblue,0  1  0  1  1  1,1,0
11696510,Button0Blue,0,"{""Source1"": 0.50, ""Source2"": 0.55, ""Source3"": 0.65}",40,6,6,6,6982.90000009537,red,0,6,1,js-scroll-button-response,284,0,4,140,65           65           65           50           55           50,redblueblueblueredblue,0  1  1  1  0  1,1,0
11696510,Button0Blue,0,"{""Source1"": 0.50, ""Source2"": 0.55, ""Source3"": 0.65}",40,6,6,6,3889.09999990463,red,1,6,1,js-scroll-button-response,286,1,4,141,50           65           55           55           65           65,redblueredredbluered,0  1  0  0  1  0,1,0
11696510,Button0Blue,0,"{""Source1"": 0.50, ""Source2"": 0.55, ""Source3"": 0.65}",40,6,6,6,4566.5,red,0,6,1,js-scroll-button-response,288,0,4,142,55           50           65           55           65           65,blueredredredblueblue,1  0  0  0  1  1,1,0
11696510,Button0Blue,0,"{""Source1"": 0.50, ""Source2"": 0.55, ""Source3"": 0.65}",40,6,6,6,4880.5,blue,1,6,0,js-scroll-button-response,290,0,4,143,55           50           65           55           55           65,redredblueredredblue,0  0  1  0  0  1,1,0
11696510,Button0Blue,0,"{""Source1"": 0.50, ""Source2"": 0.55, ""Source3"": 0.65}",40,6,6,6,3566.79999995232,blue,0,6,0,js-scroll-button-response,292,1,4,144,55           50           50           50           55           50,redblueblueredbluered,0  1  1  0  1  0,1,0
11696510,Button0Blue,0,"{""Source1"": 0.50, ""Source2"": 0.55, ""Source3"": 0.65}",40,6,6,6,3911.09999990463,blue,0,6,0,js-scroll-button-response,294,1,4,145,55           50           65           50           65           55,redblueblueblueblueblue,0  1  1  1  1  1,1,0
11696510,Button0Blue,0,"{""Source1"": 0.50, ""Source2"": 0.55, ""Source3"": 0.65}",40,6,6,6,3768.10000014305,red,1,6,1,js-scroll-button-response,296,1,4,146,55           50           50           65           55           55,bluebluebluebluebluered,1  1  1  1  1  0,1,0
11696510,Button0Blue,0,"{""Source1"": 0.50, ""Source2"": 0.55, ""Source3"": 0.65}",40,6,6,6,4150.20000004768,blue,0,6,0,js-scroll-button-response,298,1,4,147,55           65           55           50           65           55,blueredblueblueredblue,1  0  1  1  0  1,1,0
11696510,Button0Blue,0,"{""Source1"": 0.50, ""Source2"": 0.55, ""Source3"": 0.65}",40,6,6,6,4152.40000009537,red,1,6,1,js-scroll-button-response,300,1,4,148,50           55           50           65           50           50,bluebluebluebluebluered,1  1  1  1  1  0,1,0
11696510,Button0Blue,0,"{""Source1"": 0.50, ""Source2"": 0.55, ""Source3"": 0.65}",40,6,6,6,5095.59999990463,blue,1,6,0,js-scroll-button-response,302,0,4,149,65           50           55           55           65           65,blueredredblueredblue,1  0  0  1  0  1,1,0
11696510,Button0Blue,0,"{""Source1"": 0.50, ""Source2"": 0.55, ""Source3"": 0.65}",40,6,6,6,6344.29999995232,red,0,6,1,js-scroll-button-response,304,0,4,150,55           65           55           50           50           55,blueredblueblueredred,1  0  1  1  0  0,1,0
11696510,Button0Blue,0,"{""Source1"": 0.50, ""Source2"": 0.55, ""Source3"": 0.65}",40,6,6,6,4294.29999995232,blue,1,6,0,js-scroll-button-response,306,0,4,151,55           50           65           50           55           55,blueblueblueredblueblue,1  1  1  0  1  1,1,0
11696510,Button0Blue,0,"{""Source1"": 0.50, ""Source2"": 0.55, ""Source3"": 0.65}",40,6,6,6,4742.60000014305,red,0,6,1,js-scroll-button-response,308,0,4,152,50           55           50           50           55           55,blueredredblueblueblue,1  0  0  1  1  1,1,0
11696510,Button0Blue,0,"{""Source1"": 0.50, ""Source2"": 0.55, ""Source3"": 0.65}",40,6,6,6,5743.79999995232,blue,1,6,0,js-scroll-button-response,310,0,4,153,55           50           55           50           50           55,blueredredbluebluered,1  0  0  1  1  0,1,0
11696510,Button0Blue,0,"{""Source1"": 0.50, ""Source2"": 0.55, ""Source3"": 0.65}",40,6,6,6,4013.5,blue,1,6,0,js-scroll-button-response,312,0,4,154,55           50           50           55           65           65,redblueredredredblue,0  1  0  0  0  1,1,0
11696510,Button0Blue,0,"{""Source1"": 0.50, ""Source2"": 0.55, ""Source3"": 0.65}",40,6,6,6,3825.89999985695,blue,0,6,0,js-scroll-button-response,314,1,4,155,65           50           50           50           65           55,blueblueredredbluered,1  1  0  0  1  0,1,0
11696510,Button0Blue,0,"{""Source1"": 0.50, ""Source2"": 0.55, ""Source3"": 0.65}",40,6,6,6,4569.5,blue,0,6,0,js-scroll-button-response,316,1,4,156,55           65           55           50           55           65,redblueredredbluered,0  1  0  0  1  0,1,0
11696510,Button0Blue,0,"{""Source1"": 0.50, ""Source2"": 0.55, ""Source3"": 0.65}",40,6,6,6,3912.59999990463,blue,0,6,0,js-scroll-button-response,318,1,4,157,55           50           55           65           50           65,blueblueblueblueredblue,1  1  1  1  0  1,1,0
11696510,Button0Blue,0,"{""Source1"": 0.50, ""Source2"": 0.55, ""Source3"": 0.65}",40,6,6,6,3487.29999995232,blue,0,6,0,js-scroll-button-response,320,1,4,158,50           50           50           55           50           50,blueblueredblueredblue,1  1  0  1  0  1,1,0
11696510,Button0Blue,0,"{""Source1"": 0.50, ""Source2"": 0.55, ""Source3"": 0.65}",40,6,6,6,3984.5,red,0,6,1,js-scroll-button-response,322,0,4,159,50           55           50           55           55           55,redredblueblueredred,0  0  1  1  0  0,1,0
11696510,Button0Blue,0,"{""Source1"": 0.50, ""Source2"": 0.55, ""Source3"": 0.65}",40,6,6,6,5207.5,blue,0,6,0,js-scroll-button-response,324,1,4,160,65           65           50           55           55           65,blueblueredredblueblue,1  1  0  0  1  1,1,0
11696510,Button0Blue,0,"{""Source1"": 0.50, ""Source2"": 0.55, ""Source3"": 0.65}",40,6,6,6,4637.10000014305,blue,1,6,0,js-scroll-button-response,327,0,5,161,65           65           50           65           65           55,redredredredredblue,0  0  0  0  0  1,1,0
11696510,Button0Blue,0,"{""Source1"": 0.50, ""Source2"": 0.55, ""Source3"": 0.65}",40,6,6,6,3463.89999985695,red,0,6,1,js-scroll-button-response,329,0,5,162,55           65           65           55           50           65,redredblueblueredred,0  0  1  1  0  0,1,0
11696510,Button0Blue,0,"{""Source1"": 0.50, ""Source2"": 0.55, ""Source3"": 0.65}",40,6,6,6,3983.5,red,1,6,1,js-scroll-button-response,331,1,5,163,50           65           50           55           50           50,redredblueblueredred,0  0  1  1  0  0,1,0
11696510,Button0Blue,0,"{""Source1"": 0.50, ""Source2"": 0.55, ""Source3"": 0.65}",40,6,6,6,3808.40000009537,red,0,6,1,js-scroll-button-response,333,0,5,164,50           55           55           65           55           65,blueblueredredblueblue,1  1  0  0  1  1,1,0
11696510,Button0Blue,0,"{""Source1"": 0.50, ""Source2"": 0.55, ""Source3"": 0.65}",40,6,6,6,3320.79999995232,blue,0,6,0,js-scroll-button-response,335,1,5,165,50           65           55           65           50           50,blueblueblueblueredred,1  1  1  1  0  0,1,0
11696510,Button0Blue,0,"{""Source1"": 0.50, ""Source2"": 0.55, ""Source3"": 0.65}",40,6,6,6,4031.5,red,0,6,1,js-scroll-button-response,337,0,5,166,65           65           55           65           50           55,redredblueredbluered,0  0  1  0  1  0,1,0
11696510,Button0Blue,0,"{""Source1"": 0.50, ""Source2"": 0.55, ""Source3"": 0.65}",40,6,6,6,3825.29999995232,blue,0,6,0,js-scroll-button-response,339,1,5,167,65           55           50           65           65           65,redblueblueblueredblue,0  1  1  1  0  1,1,0
11696510,Button0Blue,0,"{""Source1"": 0.50, ""Source2"": 0.55, ""Source3"": 0.65}",40,6,6,6,3885.40000009537,red,1,6,1,js-scroll-button-response,341,1,5,168,65           65           65           55           55           65,blueredredredredred,1  0  0  0  0  0,1,0
11696510,Button0Blue,0,"{""Source1"": 0.50, ""Source2"": 0.55, ""Source3"": 0.65}",40,6,6,6,3967.09999990463,blue,0,6,0,js-scroll-button-response,343,1,5,169,50           65           55           65           55           50,blueblueredbluebluered,1  1  0  1  1  0,1,0
11696510,Button0Blue,0,"{""Source1"": 0.50, ""Source2"": 0.55, ""Source3"": 0.65}",40,6,6,6,3998.29999995232,blue,0,6,0,js-scroll-button-response,345,1,5,170,65           50           55           65           55           55,blueredblueblueredblue,1  0  1  1  0  1,1,0
11696510,Button0Blue,0,"{""Source1"": 0.50, ""Source2"": 0.55, ""Source3"": 0.65}",40,6,6,6,3668.79999995232,red,0,6,1,js-scroll-button-response,347,0,5,171,55           55           65           50           50           50,redblueblueblueredred,0  1  1  1  0  0,1,0
11696510,Button0Blue,0,"{""Source1"": 0.50, ""Source2"": 0.55, ""Source3"": 0.65}",40,6,6,6,3773.79999995232,blue,0,6,0,js-scroll-button-response,349,1,5,172,50           55           50           50           65           50,redredblueblueblueblue,0  0  1  1  1  1,1,0
11696510,Button0Blue,0,"{""Source1"": 0.50, ""Source2"": 0.55, ""Source3"": 0.65}",40,6,6,6,4422.39999985695,blue,0,6,0,js-scroll-button-response,351,1,5,173,65           65           50           65           55           65,blueredblueblueblueblue,1  0  1  1  1  1,1,0
11696510,Button0Blue,0,"{""Source1"": 0.50, ""Source2"": 0.55, ""Source3"": 0.65}",40,6,6,6,4288.5,red,1,6,1,js-scroll-button-response,353,1,5,174,55           50           55           50           55           65,redblueblueblueredred,0  1  1  1  0  0,1,0
11696510,Button0Blue,0,"{""Source1"": 0.50, ""Source2"": 0.55, ""Source3"": 0.65}",40,6,6,6,4469.79999995232,blue,1,6,0,js-scroll-button-response,355,0,5,175,55           50           50           55           50           65,blueredblueredredblue,1  0  1  0  0  1,1,0
11696510,Button0Blue,0,"{""Source1"": 0.50, ""Source2"": 0.55, ""Source3"": 0.65}",40,6,6,6,3775.39999985695,blue,0,6,0,js-scroll-button-response,357,1,5,176,65           55           50           55           55           50,blueblueredblueredred,1  1  0  1  0  0,1,0
11696510,Button0Blue,0,"{""Source1"": 0.50, ""Source2"": 0.55, ""Source3"": 0.65}",40,6,6,6,3892.79999995232,blue,0,6,0,js-scroll-button-response,359,1,5,177,55           55           50           55           55           50,blueblueblueredredblue,1  1  1  0  0  1,1,0
11696510,Button0Blue,0,"{""Source1"": 0.50, ""Source2"": 0.55, ""Source3"": 0.65}",40,6,6,6,3391.09999990463,blue,0,6,0,js-scroll-button-response,361,1,5,178,50           50           55           50           65           55,redredblueblueblueblue,0  0  1  1  1  1,1,0
11696510,Button0Blue,0,"{""Source1"": 0.50, ""Source2"": 0.55, ""Source3"": 0.65}",40,6,6,6,4380.10000014305,blue,0,6,0,js-scroll-button-response,363,1,5,179,65           65           55           55           65           65,redredredredredblue,0  0  0  0  0  1,1,0
11696510,Button0Blue,0,"{""Source1"": 0.50, ""Source2"": 0.55, ""Source3"": 0.65}",40,6,6,6,3520.90000009537,blue,0,6,0,js-scroll-button-response,365,1,5,180,55           65           55           65           50           50,redredbluebluebluered,0  0  1  1  1  0,1,0
11696510,Button0Blue,0,"{""Source1"": 0.50, ""Source2"": 0.55, ""Source3"": 0.65}",40,6,6,6,3273.90000009537,red,0,6,1,js-scroll-button-response,367,0,5,181,55           65           65           50           65           65,blueblueredblueredblue,1  1  0  1  0  1,1,0
11696510,Button0Blue,0,"{""Source1"": 0.50, ""Source2"": 0.55, ""Source3"": 0.65}",40,6,6,6,3832.79999995232,blue,0,6,0,js-scroll-button-response,369,1,5,182,65           65           65           55           65           50,blueblueblueblueredblue,1  1  1  1  0  1,1,0
11696510,Button0Blue,0,"{""Source1"": 0.50, ""Source2"": 0.55, ""Source3"": 0.65}",40,6,6,6,3632.60000014305,blue,0,6,0,js-scroll-button-response,371,1,5,183,55           55           65           50           55           55,blueredblueredredblue,1  0  1  0  0  1,1,0
11696510,Button0Blue,0,"{""Source1"": 0.50, ""Source2"": 0.55, ""Source3"": 0.65}",40,6,6,6,3727.29999995232,blue,0,6,0,js-scroll-button-response,373,1,5,184,55           55           65           50           65           50,blueblueblueredblueblue,1  1  1  0  1  1,1,0
11696510,Button0Blue,0,"{""Source1"": 0.50, ""Source2"": 0.55, ""Source3"": 0.65}",40,6,6,6,4328.09999990463,blue,1,6,0,js-scroll-button-response,375,0,5,185,65           65           55           65           50           50,blueblueredredredred,1  1  0  0  0  0,1,0
11696510,Button0Blue,0,"{""Source1"": 0.50, ""Source2"": 0.55, ""Source3"": 0.65}",40,6,6,6,3795,blue,1,6,0,js-scroll-button-response,377,0,5,186,50  65  65  50  65  50,redblueredredredred,0  1  0  0  0  0,1,0
11696510,Button0Blue,0,"{""Source1"": 0.50, ""Source2"": 0.55, ""Source3"": 0.65}",40,6,6,6,4111.70000004768,red,1,6,1,js-scroll-button-response,379,1,5,187,55           50           50           50           50           65,blueblueredbluebluered,1  1  0  1  1  0,1,0
11696510,Button0Blue,0,"{""Source1"": 0.50, ""Source2"": 0.55, ""Source3"": 0.65}",40,6,6,6,4536.59999990463,red,0,6,1,js-scroll-button-response,381,0,5,188,55           65           50           50           55           55,redredredredbluered,0  0  0  0  1  0,1,0
11696510,Button0Blue,0,"{""Source1"": 0.50, ""Source2"": 0.55, ""Source3"": 0.65}",40,6,6,6,4137.60000014305,red,1,6,1,js-scroll-button-response,383,1,5,189,50           65           65           50           55           65,redblueblueredredred,0  1  1  0  0  0,1,0
11696510,Button0Blue,0,"{""Source1"": 0.50, ""Source2"": 0.55, ""Source3"": 0.65}",40,6,6,6,4071.70000004768,blue,1,6,0,js-scroll-button-response,385,0,5,190,55           50           65           50           65           50,redblueredredbluered,0  1  0  0  1  0,1,0
11696510,Button0Blue,0,"{""Source1"": 0.50, ""Source2"": 0.55, ""Source3"": 0.65}",40,6,6,6,4006.5,blue,0,6,0,js-scroll-button-response,387,1,5,191,65           55           65           50           55           55,blueredblueredredred,1  0  1  0  0  0,1,0
11696510,Button0Blue,0,"{""Source1"": 0.50, ""Source2"": 0.55, ""Source3"": 0.65}",40,6,6,6,3289.59999990463,red,0,6,1,js-scroll-button-response,389,0,5,192,65  50  65  65  50  50,redblueredredblueblue,0  1  0  0  1  1,1,0
11696510,Button0Blue,0,"{""Source1"": 0.50, ""Source2"": 0.55, ""Source3"": 0.65}",40,6,6,6,3935.19999980927,blue,0,6,0,js-scroll-button-response,391,1,5,193,55           65           50           65           55           50,bluebluebluebluebluered,1  1  1  1  1  0,1,0
11696510,Button0Blue,0,"{""Source1"": 0.50, ""Source2"": 0.55, ""Source3"": 0.65}",40,6,6,6,3672,blue,0,6,0,js-scroll-button-response,393,1,5,194,65           65           55           50           65           55,redblueblueredredblue,0  1  1  0  0  1,1,0
11696510,Button0Blue,0,"{""Source1"": 0.50, ""Source2"": 0.55, ""Source3"": 0.65}",40,6,6,6,3634,blue,1,6,0,js-scroll-button-response,395,0,5,195,50  65  65  50  50  50,redredblueblueredred,0  0  1  1  0  0,1,0
11696510,Button0Blue,0,"{""Source1"": 0.50, ""Source2"": 0.55, ""Source3"": 0.65}",40,6,6,6,3711,blue,0,6,0,js-scroll-button-response,397,1,5,196,55           65           50           50           55           65,redblueblueredbluered,0  1  1  0  1  0,1,0
11696510,Button0Blue,0,"{""Source1"": 0.50, ""Source2"": 0.55, ""Source3"": 0.65}",40,6,6,6,3622.19999980927,blue,0,6,0,js-scroll-button-response,399,1,5,197,55           55           65           55           50           65,blueblueblueblueblueblue,1  1  1  1  1  1,1,0
11696510,Button0Blue,0,"{""Source1"": 0.50, ""Source2"": 0.55, ""Source3"": 0.65}",40,6,6,6,5145.09999990463,red,1,6,1,js-scroll-button-response,401,1,5,198,50           50           55           55           50           55,redblueblueredredred,0  1  1  0  0  0,1,0
11696510,Button0Blue,0,"{""Source1"": 0.50, ""Source2"": 0.55, ""Source3"": 0.65}",40,6,6,6,3790,blue,0,6,0,js-scroll-button-response,403,1,5,199,50           55           50           65           55           55,redredredblueblueblue,0  0  0  1  1  1,1,0
11696510,Button0Blue,0,"{""Source1"": 0.50, ""Source2"": 0.55, ""Source3"": 0.65}",40,6,6,6,3331.90000009537,red,1,6,1,js-scroll-button-response,405,1,5,200,50           65           55           65           55           50,redblueredredredred,0  1  0  0  0  0,1,0
11696510,Button0Blue,0,"{""Source1"": 0.50, ""Source2"": 0.55, ""Source3"": 0.65}",40,6,6,6,3790.70000004768,blue,1,6,0,js-scroll-button-response,408,0,6,201,65           50           50           65           55           65,blueredblueredredblue,1  0  1  0  0  1,1,0
11696510,Button0Blue,0,"{""Source1"": 0.50, ""Source2"": 0.55, ""Source3"": 0.65}",40,6,6,6,3503.5,blue,1,6,0,js-scroll-button-response,410,0,6,202,65           55           50           65           55           65,redblueredredredblue,0  1  0  0  0  1,1,0
11696510,Button0Blue,0,"{""Source1"": 0.50, ""Source2"": 0.55, ""Source3"": 0.65}",40,6,6,6,3872.89999985695,blue,0,6,0,js-scroll-button-response,412,1,6,203,50  50  50  50  50  50,redblueblueredredblue,0  1  1  0  0  1,1,0
11696510,Button0Blue,0,"{""Source1"": 0.50, ""Source2"": 0.55, ""Source3"": 0.65}",40,6,6,6,3790.20000004768,blue,0,6,0,js-scroll-button-response,414,1,6,204,65           55           55           50           65           65,blueblueblueredredblue,1  1  1  0  0  1,1,0
11696510,Button0Blue,0,"{""Source1"": 0.50, ""Source2"": 0.55, ""Source3"": 0.65}",40,6,6,6,3615.40000009537,red,0,6,1,js-scroll-button-response,416,0,6,205,65           55           50           65           55           55,blueredbluebluebluered,1  0  1  1  1  0,1,0
11696510,Button0Blue,0,"{""Source1"": 0.50, ""Source2"": 0.55, ""Source3"": 0.65}",40,6,6,6,3535.40000009537,red,1,6,1,js-scroll-button-response,418,1,6,206,50  65  65  50  65  65,blueredredblueredred,1  0  0  1  0  0,1,0
11696510,Button0Blue,0,"{""Source1"": 0.50, ""Source2"": 0.55, ""Source3"": 0.65}",40,6,6,6,3848.39999985695,blue,1,6,0,js-scroll-button-response,420,0,6,207,50           65           65           50           50           55,blueblueredredredred,1  1  0  0  0  0,1,0
11696510,Button0Blue,0,"{""Source1"": 0.50, ""Source2"": 0.55, ""Source3"": 0.65}",40,6,6,6,3840.80000019073,red,1,6,1,js-scroll-button-response,422,1,6,208,55           65           50           50           50           55,blueredbluebluebluered,1  0  1  1  1  0,1,0
11696510,Button0Blue,0,"{""Source1"": 0.50, ""Source2"": 0.55, ""Source3"": 0.65}",40,6,6,6,3367.80000019073,red,1,6,1,js-scroll-button-response,424,1,6,209,65           65           50           55           50           65,blueblueredblueredred,1  1  0  1  0  0,1,0
11696510,Button0Blue,0,"{""Source1"": 0.50, ""Source2"": 0.55, ""Source3"": 0.65}",40,6,6,6,3176.79999995232,blue,0,6,0,js-scroll-button-response,426,1,6,210,55           65           50           65           50           65,redredblueblueblueblue,0  0  1  1  1  1,1,0
11696510,Button0Blue,0,"{""Source1"": 0.50, ""Source2"": 0.55, ""Source3"": 0.65}",40,6,6,6,3687.29999995232,red,1,6,1,js-scroll-button-response,428,1,6,211,50           50           50           50           55           65,redredblueredredred,0  0  1  0  0  0,1,0
11696510,Button0Blue,0,"{""Source1"": 0.50, ""Source2"": 0.55, ""Source3"": 0.65}",40,6,6,6,3942.70000004768,red,0,6,1,js-scroll-button-response,430,0,6,212,55           55           55           55           65           50,redblueblueredbluered,0  1  1  0  1  0,1,0
11696510,Button0Blue,0,"{""Source1"": 0.50, ""Source2"": 0.55, ""Source3"": 0.65}",40,6,6,6,3663.80000019073,blue,0,6,0,js-scroll-button-response,432,1,6,213,65           55           50           50           55           65,blueblueredblueredred,1  1  0  1  0  0,1,0
11696510,Button0Blue,0,"{""Source1"": 0.50, ""Source2"": 0.55, ""Source3"": 0.65}",40,6,6,6,3794.29999995232,blue,0,6,0,js-scroll-button-response,434,1,6,214,50           65           50           50           55           50,blueblueblueblueredred,1  1  1  1  0  0,1,0
11696510,Button0Blue,0,"{""Source1"": 0.50, ""Source2"": 0.55, ""Source3"": 0.65}",40,6,6,6,3655.40000009537,blue,0,6,0,js-scroll-button-response,436,1,6,215,65           50           65           50           55           55,redblueblueredredblue,0  1  1  0  0  1,1,0
11696510,Button0Blue,0,"{""Source1"": 0.50, ""Source2"": 0.55, ""Source3"": 0.65}",40,6,6,6,3384.79999995232,blue,1,6,0,js-scroll-button-response,438,0,6,216,65           65           55           65           55           55,blueredredredbluered,1  0  0  0  1  0,1,0
11696510,Button0Blue,0,"{""Source1"": 0.50, ""Source2"": 0.55, ""Source3"": 0.65}",40,6,6,6,3979.90000009537,blue,1,6,0,js-scroll-button-response,440,0,6,217,55           50           65           55           55           55,blueredredredblueblue,1  0  0  0  1  1,1,0
11696510,Button0Blue,0,"{""Source1"": 0.50, ""Source2"": 0.55, ""Source3"": 0.65}",40,6,6,6,3884.10000014305,red,1,6,1,js-scroll-button-response,442,1,6,218,65           50           65           50           55           55,redredredredredred,0  0  0  0  0  0,1,0
11696510,Button0Blue,0,"{""Source1"": 0.50, ""Source2"": 0.55, ""Source3"": 0.65}",40,6,6,6,3207.40000009537,blue,0,6,0,js-scroll-button-response,444,1,6,219,65           50           55           65           65           65,blueblueredblueblueblue,1  1  0  1  1  1,1,0
11696510,Button0Blue,0,"{""Source1"": 0.50, ""Source2"": 0.55, ""Source3"": 0.65}",40,6,6,6,3072.60000014305,blue,1,6,0,js-scroll-button-response,446,0,6,220,55           55           55           55           55           55,redredredredredblue,0  0  0  0  0  1,1,0
11696510,Button0Blue,0,"{""Source1"": 0.50, ""Source2"": 0.55, ""Source3"": 0.65}",40,6,6,6,3777.89999985695,red,0,6,1,js-scroll-button-response,448,0,6,221,65           50           65           55           55           65,redblueblueredblueblue,0  1  1  0  1  1,1,0
11696510,Button0Blue,0,"{""Source1"": 0.50, ""Source2"": 0.55, ""Source3"": 0.65}",40,6,6,6,4361.39999985695,blue,1,6,0,js-scroll-button-response,450,0,6,222,65           65           55           55           65           65,redblueredredbluered,0  1  0  0  1  0,1,0
11696510,Button0Blue,0,"{""Source1"": 0.50, ""Source2"": 0.55, ""Source3"": 0.65}",40,6,6,6,3538.09999990463,blue,0,6,0,js-scroll-button-response,452,1,6,223,65           50           65           55           65           65,blueblueblueblueredred,1  1  1  1  0  0,1,0
11696510,Button0Blue,0,"{""Source1"": 0.50, ""Source2"": 0.55, ""Source3"": 0.65}",40,6,6,6,3806.5,blue,0,6,0,js-scroll-button-response,454,1,6,224,55           65           65           55           50           65,redblueredblueblueblue,0  1  0  1  1  1,1,0
11696510,Button0Blue,0,"{""Source1"": 0.50, ""Source2"": 0.55, ""Source3"": 0.65}",40,6,6,6,3565.89999985695,blue,0,6,0,js-scroll-button-response,456,1,6,225,55           65           50           50           55           55,blueredblueblueredred,1  0  1  1  0  0,1,0
11696510,Button0Blue,0,"{""Source1"": 0.50, ""Source2"": 0.55, ""Source3"": 0.65}",40,6,6,6,3609.29999995232,red,1,6,1,js-scroll-button-response,458,1,6,226,55           55           65           50           50           55,redblueblueredredred,0  1  1  0  0  0,1,0
11696510,Button0Blue,0,"{""Source1"": 0.50, ""Source2"": 0.55, ""Source3"": 0.65}",40,6,6,6,3743,blue,0,6,0,js-scroll-button-response,460,1,6,227,50           55           65           55           50           55,redredbluebluebluered,0  0  1  1  1  0,1,0
11696510,Button0Blue,0,"{""Source1"": 0.50, ""Source2"": 0.55, ""Source3"": 0.65}",40,6,6,6,4448.20000004768,blue,0,6,0,js-scroll-button-response,462,1,6,228,55           50           50           65           65           65,redredredblueblueblue,0  0  0  1  1  1,1,0
11696510,Button0Blue,0,"{""Source1"": 0.50, ""Source2"": 0.55, ""Source3"": 0.65}",40,6,6,6,4592.79999995232,blue,0,6,0,js-scroll-button-response,464,1,6,229,55           50           55           50           55           55,bluebluebluebluebluered,1  1  1  1  1  0,1,0
11696510,Button0Blue,0,"{""Source1"": 0.50, ""Source2"": 0.55, ""Source3"": 0.65}",40,6,6,6,3479.5,blue,1,6,0,js-scroll-button-response,466,0,6,230,55           65           50           50           55           50,redblueredredblueblue,0  1  0  0  1  1,1,0
11696510,Button0Blue,0,"{""Source1"": 0.50, ""Source2"": 0.55, ""Source3"": 0.65}",40,6,6,6,3848.29999995232,red,0,6,1,js-scroll-button-response,468,0,6,231,65           50           55           50           65           65,blueredbluebluebluered,1  0  1  1  1  0,1,0
11696510,Button0Blue,0,"{""Source1"": 0.50, ""Source2"": 0.55, ""Source3"": 0.65}",40,6,6,6,3255.59999990463,red,1,6,1,js-scroll-button-response,470,1,6,232,50           50           55           65           65           55,redredredblueredred,0  0  0  1  0  0,1,0
11696510,Button0Blue,0,"{""Source1"": 0.50, ""Source2"": 0.55, ""Source3"": 0.65}",40,6,6,6,4135.90000009537,blue,0,6,0,js-scroll-button-response,472,1,6,233,50  50  65  50  65  65,blueredredblueblueblue,1  0  0  1  1  1,1,0
11696510,Button0Blue,0,"{""Source1"": 0.50, ""Source2"": 0.55, ""Source3"": 0.65}",40,6,6,6,5431.70000004768,red,0,6,1,js-scroll-button-response,474,0,6,234,50           50           50           50           55           55,blueblueredbluebluered,1  1  0  1  1  0,1,0
11696510,Button0Blue,0,"{""Source1"": 0.50, ""Source2"": 0.55, ""Source3"": 0.65}",40,6,6,6,4470,blue,0,6,0,js-scroll-button-response,476,1,6,235,50           50           50           65           55           50,bluebluebluebluebluered,1  1  1  1  1  0,1,0
11696510,Button0Blue,0,"{""Source1"": 0.50, ""Source2"": 0.55, ""Source3"": 0.65}",40,6,6,6,3288.29999995232,red,0,6,1,js-scroll-button-response,478,0,6,236,55           55           55           50           65           50,blueblueredblueblueblue,1  1  0  1  1  1,1,0
11696510,Button0Blue,0,"{""Source1"": 0.50, ""Source2"": 0.55, ""Source3"": 0.65}",40,6,6,6,3160.09999990463,red,1,6,1,js-scroll-button-response,480,1,6,237,50           65           65           55           65           65,redredredbluebluered,0  0  0  1  1  0,1,0
11696510,Button0Blue,0,"{""Source1"": 0.50, ""Source2"": 0.55, ""Source3"": 0.65}",40,6,6,6,4400.59999990463,blue,0,6,0,js-scroll-button-response,482,1,6,238,50           50           50           50           65           55,blueredredblueblueblue,1  0  0  1  1  1,1,0
11696510,Button0Blue,0,"{""Source1"": 0.50, ""Source2"": 0.55, ""Source3"": 0.65}",40,6,6,6,3689.29999995232,blue,1,6,0,js-scroll-button-response,484,0,6,239,50           65           55           50           55           50,redredredredredred,0  0  0  0  0  0,1,0
11696510,Button0Blue,0,"{""Source1"": 0.50, ""Source2"": 0.55, ""Source3"": 0.65}",40,6,6,6,3832.79999995232,blue,0,6,0,js-scroll-button-response,486,1,6,240,55           50           65           55           50           65,blueredblueredbluered,1  0  1  0  1  0,1,0
11696542,Button0Red,1,"{""Source1"": 0.50, ""Source2"": 0.55, ""Source3"": 0.65}",40,6,6,6,26408,blue,0,6,1,js-scroll-button-response,3,0,1,1,50           65           55           50           65           55,blueblueredblueredred,0  0  1  0  1  1,1,0
11696542,Button0Red,1,"{""Source1"": 0.50, ""Source2"": 0.55, ""Source3"": 0.65}",40,6,6,6,18655,red,1,6,0,js-scroll-button-response,5,0,1,2,65           50           55           50           55           50,redredblueblueblueblue,1  1  0  0  0  0,1,0
11696542,Button0Red,1,"{""Source1"": 0.50, ""Source2"": 0.55, ""Source3"": 0.65}",40,6,6,6,14771,red,0,6,0,js-scroll-button-response,7,1,1,3,65           50           55           50           65           55,redblueredblueredred,1  0  1  0  1  1,1,0
11696542,Button0Red,1,"{""Source1"": 0.50, ""Source2"": 0.55, ""Source3"": 0.65}",40,6,6,6,12828,blue,1,6,1,js-scroll-button-response,9,1,1,4,50           65           65           50           50           55,blueblueblueblueredblue,0  0  0  0  1  0,1,0
11696542,Button0Red,1,"{""Source1"": 0.50, ""Source2"": 0.55, ""Source3"": 0.65}",40,6,6,6,9814.00000000003,blue,1,6,1,js-scroll-button-response,11,1,1,5,50           55           55           65           50           55,blueblueblueblueredred,0  0  0  0  1  1,1,0
11696542,Button0Red,1,"{""Source1"": 0.50, ""Source2"": 0.55, ""Source3"": 0.65}",40,6,6,6,39838,blue,0,6,1,js-scroll-button-response,13,0,1,6,65           50           65           65           50           55,redblueblueredredblue,1  0  0  1  1  0,1,0
11696542,Button0Red,1,"{""Source1"": 0.50, ""Source2"": 0.55, ""Source3"": 0.65}",40,6,6,6,9295.99999999994,red,0,6,0,js-scroll-button-response,15,1,1,7,50           65           55           50           65           55,redredblueredredred,1  1  0  1  1  1,1,0
11696542,Button0Red,1,"{""Source1"": 0.50, ""Source2"": 0.55, ""Source3"": 0.65}",40,6,6,6,16341.0000000001,red,0,6,0,js-scroll-button-response,17,1,1,8,50           55           50           65           65           50,redredblueblueredblue,1  1  0  0  1  0,1,0
11696542,Button0Red,1,"{""Source1"": 0.50, ""Source2"": 0.55, ""Source3"": 0.65}",40,6,6,6,34326,blue,0,6,1,js-scroll-button-response,19,0,1,9,65  50  65  50  65  50,blueredredbluebluered,0  1  1  0  0  1,1,0
11696542,Button0Red,1,"{""Source1"": 0.50, ""Source2"": 0.55, ""Source3"": 0.65}",40,6,6,6,9985,blue,0,6,1,js-scroll-button-response,21,0,1,10,50           65           50           55           50           65,redredredredredblue,1  1  1  1  1  0,1,0
11696542,Button0Red,1,"{""Source1"": 0.50, ""Source2"": 0.55, ""Source3"": 0.65}",40,6,6,6,19489,blue,1,6,1,js-scroll-button-response,23,1,1,11,65           65           50           50           65           55,redbluebluebluebluered,1  0  0  0  0  1,1,0
11696542,Button0Red,1,"{""Source1"": 0.50, ""Source2"": 0.55, ""Source3"": 0.65}",40,6,6,6,9747,blue,0,6,1,js-scroll-button-response,25,0,1,12,55           50           50           55           65           55,redblueredredredblue,1  0  1  1  1  0,1,0
11696542,Button0Red,1,"{""Source1"": 0.50, ""Source2"": 0.55, ""Source3"": 0.65}",40,6,6,6,26931,red,0,6,0,js-scroll-button-response,27,1,1,13,65           55           55           50           65           50,redblueredredredblue,1  0  1  1  1  0,1,0
11696542,Button0Red,1,"{""Source1"": 0.50, ""Source2"": 0.55, ""Source3"": 0.65}",40,6,6,6,13377,red,0,6,0,js-scroll-button-response,29,1,1,14,50           65           50           65           65           55,blueredredblueredred,0  1  1  0  1  1,1,0
11696542,Button0Red,1,"{""Source1"": 0.50, ""Source2"": 0.55, ""Source3"": 0.65}",40,6,6,6,10819.0000000001,red,0,6,0,js-scroll-button-response,31,1,1,15,65           65           55           65           55           65,redredbluebluebluered,1  1  0  0  0  1,1,0
11696542,Button0Red,1,"{""Source1"": 0.50, ""Source2"": 0.55, ""Source3"": 0.65}",40,6,6,6,9311.99999999994,blue,0,6,1,js-scroll-button-response,33,0,1,16,55           55           65           50           50           50,blueredredredbluered,0  1  1  1  0  1,1,0
11696542,Button0Red,1,"{""Source1"": 0.50, ""Source2"": 0.55, ""Source3"": 0.65}",40,6,6,6,17502,blue,1,6,1,js-scroll-button-response,35,1,1,17,65           50           50           65           65           55,redblueblueredblueblue,1  0  0  1  0  0,1,0
11696542,Button0Red,1,"{""Source1"": 0.50, ""Source2"": 0.55, ""Source3"": 0.65}",40,6,6,6,7399,blue,0,6,1,js-scroll-button-response,37,0,1,18,50           50           50           55           65           50,blueblueblueredredblue,0  0  0  1  1  0,1,0
11696542,Button0Red,1,"{""Source1"": 0.50, ""Source2"": 0.55, ""Source3"": 0.65}",40,6,6,6,8733,blue,1,6,1,js-scroll-button-response,39,1,1,19,50           55           65           50           55           65,blueredblueredblueblue,0  1  0  1  0  0,1,0
11696542,Button0Red,1,"{""Source1"": 0.50, ""Source2"": 0.55, ""Source3"": 0.65}",40,6,6,6,10992,blue,1,6,1,js-scroll-button-response,41,1,1,20,65           55           55           50           50           65,blueredblueblueblueblue,0  1  0  0  0  0,1,0
11696542,Button0Red,1,"{""Source1"": 0.50, ""Source2"": 0.55, ""Source3"": 0.65}",40,6,6,6,9994.99999999994,blue,0,6,1,js-scroll-button-response,43,0,1,21,50           50           50           65           55           50,blueredredredredblue,0  1  1  1  1  0,1,0
11696542,Button0Red,1,"{""Source1"": 0.50, ""Source2"": 0.55, ""Source3"": 0.65}",40,6,6,6,10601,red,1,6,0,js-scroll-button-response,45,0,1,22,55           50           55           55           50           50,blueblueredblueblueblue,0  0  1  0  0  0,1,0
11696542,Button0Red,1,"{""Source1"": 0.50, ""Source2"": 0.55, ""Source3"": 0.65}",40,6,6,6,9063,blue,0,6,1,js-scroll-button-response,47,0,1,23,50           65           65           55           55           55,redblueblueredredred,1  0  0  1  1  1,1,0
11696542,Button0Red,1,"{""Source1"": 0.50, ""Source2"": 0.55, ""Source3"": 0.65}",40,6,6,6,8847,blue,1,6,1,js-scroll-button-response,49,1,1,24,50           50           65           65           50           55,redredblueredredblue,1  1  0  1  1  0,1,0
11696542,Button0Red,1,"{""Source1"": 0.50, ""Source2"": 0.55, ""Source3"": 0.65}",40,6,6,6,10481,red,0,6,0,js-scroll-button-response,51,1,1,25,65           55           50           65           55           55,blueblueredredredred,0  0  1  1  1  1,1,0
11696542,Button0Red,1,"{""Source1"": 0.50, ""Source2"": 0.55, ""Source3"": 0.65}",40,6,6,6,9430,blue,1,6,1,js-scroll-button-response,53,1,1,26,50           50           65           55           50           50,blueredblueblueredblue,0  1  0  0  1  0,1,0
11696542,Button0Red,1,"{""Source1"": 0.50, ""Source2"": 0.55, ""Source3"": 0.65}",40,6,6,6,11321,red,0,6,0,js-scroll-button-response,55,1,1,27,55           65           55           50           55           50,blueredredblueblueblue,0  1  1  0  0  0,1,0
11696542,Button0Red,1,"{""Source1"": 0.50, ""Source2"": 0.55, ""Source3"": 0.65}",40,6,6,6,9109,blue,0,6,1,js-scroll-button-response,57,0,1,28,65           50           55           65           65           50,redblueredredblueblue,1  0  1  1  0  0,1,0
11696542,Button0Red,1,"{""Source1"": 0.50, ""Source2"": 0.55, ""Source3"": 0.65}",40,6,6,6,9919,blue,1,6,1,js-scroll-button-response,59,1,1,29,65           55           65           50           65           65,blueblueblueredblueblue,0  0  0  1  0  0,1,0
11696542,Button0Red,1,"{""Source1"": 0.50, ""Source2"": 0.55, ""Source3"": 0.65}",40,6,6,6,15107,blue,0,6,1,js-scroll-button-response,61,0,1,30,55           50           50           55           65           50,redredredbluebluered,1  1  1  0  0  1,1,0
11696542,Button0Red,1,"{""Source1"": 0.50, ""Source2"": 0.55, ""Source3"": 0.65}",40,6,6,6,8243.00000000012,blue,1,6,1,js-scroll-button-response,63,1,1,31,65           55           55           55           50           65,redblueredblueblueblue,1  0  1  0  0  0,1,0
11696542,Button0Red,1,"{""Source1"": 0.50, ""Source2"": 0.55, ""Source3"": 0.65}",40,6,6,6,13188,red,0,6,0,js-scroll-button-response,65,1,1,32,55           55           50           55           65           65,redblueredblueredred,1  0  1  0  1  1,1,0
11696542,Button0Red,1,"{""Source1"": 0.50, ""Source2"": 0.55, ""Source3"": 0.65}",40,6,6,6,14444,blue,1,6,1,js-scroll-button-response,67,1,1,33,65           50           65           55           55           55,blueblueredblueredblue,0  0  1  0  1  0,1,0
11696542,Button0Red,1,"{""Source1"": 0.50, ""Source2"": 0.55, ""Source3"": 0.65}",40,6,6,6,7473,blue,1,6,1,js-scroll-button-response,69,1,1,34,55           65           50           55           50           55,blueblueblueblueredblue,0  0  0  0  1  0,1,0
11696542,Button0Red,1,"{""Source1"": 0.50, ""Source2"": 0.55, ""Source3"": 0.65}",40,6,6,6,21672,blue,0,6,1,js-scroll-button-response,71,0,1,35,55           50           65           50           50           55,blueredredblueblueblue,0  1  1  0  0  0,1,0
11696542,Button0Red,1,"{""Source1"": 0.50, ""Source2"": 0.55, ""Source3"": 0.65}",40,6,6,6,28627,red,1,6,0,js-scroll-button-response,73,0,1,36,65           55           55           55           65           65,blueredredblueredblue,0  1  1  0  1  0,1,0
11696542,Button0Red,1,"{""Source1"": 0.50, ""Source2"": 0.55, ""Source3"": 0.65}",40,6,6,6,8703.99999999988,blue,1,6,1,js-scroll-button-response,75,1,1,37,55           65           65           55           55           65,blueblueredredblueblue,0  0  1  1  0  0,1,0
11696542,Button0Red,1,"{""Source1"": 0.50, ""Source2"": 0.55, ""Source3"": 0.65}",40,6,6,6,6973,red,0,6,0,js-scroll-button-response,77,1,1,38,50  65  50  50  50  65,blueredbluebluebluered,0  1  0  0  0  1,1,0
11696542,Button0Red,1,"{""Source1"": 0.50, ""Source2"": 0.55, ""Source3"": 0.65}",40,6,6,6,30425.9999999999,blue,0,6,1,js-scroll-button-response,79,0,1,39,65           55           65           65           50           50,redblueredbluebluered,1  0  1  0  0  1,1,0
11696542,Button0Red,1,"{""Source1"": 0.50, ""Source2"": 0.55, ""Source3"": 0.65}",40,6,6,6,8960,red,0,6,0,js-scroll-button-response,81,1,1,40,50           55           55           55           65           55,blueredblueredredred,0  1  0  1  1  1,1,0
11696542,Button0Red,1,"{""Source1"": 0.50, ""Source2"": 0.55, ""Source3"": 0.65}",40,6,6,6,7728.99999999988,red,0,6,0,js-scroll-button-response,84,1,2,41,50           65           65           50           55           65,blueredredbluebluered,0  1  1  0  0  1,1,0
11696542,Button0Red,1,"{""Source1"": 0.50, ""Source2"": 0.55, ""Source3"": 0.65}",40,6,6,6,9222.00000000012,blue,0,6,1,js-scroll-button-response,86,0,2,42,50           55           50           50           65           50,redblueblueblueredred,1  0  0  0  1  1,1,0
11696542,Button0Red,1,"{""Source1"": 0.50, ""Source2"": 0.55, ""Source3"": 0.65}",40,6,6,6,7715.00000000012,blue,1,6,1,js-scroll-button-response,88,1,2,43,55           50           55           65           65           55,blueredblueblueredblue,0  1  0  0  1  0,1,0
11696542,Button0Red,1,"{""Source1"": 0.50, ""Source2"": 0.55, ""Source3"": 0.65}",40,6,6,6,17256,blue,0,6,1,js-scroll-button-response,90,0,2,44,55           65           50           65           65           55,blueredblueblueredred,0  1  0  0  1  1,1,0
11696542,Button0Red,1,"{""Source1"": 0.50, ""Source2"": 0.55, ""Source3"": 0.65}",40,6,6,6,31536,blue,1,6,1,js-scroll-button-response,92,1,2,45,65           50           55           65           65           55,blueredredblueredblue,0  1  1  0  1  0,1,0
11696542,Button0Red,1,"{""Source1"": 0.50, ""Source2"": 0.55, ""Source3"": 0.65}",40,6,6,6,12034.9999999999,blue,1,6,1,js-scroll-button-response,94,1,2,46,55           65           65           55           55           65,blueblueredbluebluered,0  0  1  0  0  1,1,0
11696542,Button0Red,1,"{""Source1"": 0.50, ""Source2"": 0.55, ""Source3"": 0.65}",40,6,6,6,8430,blue,0,6,1,js-scroll-button-response,96,0,2,47,50           65           50           55           55           55,redredbluebluebluered,1  1  0  0  0  1,1,0
11696542,Button0Red,1,"{""Source1"": 0.50, ""Source2"": 0.55, ""Source3"": 0.65}",40,6,6,6,9893,blue,1,6,1,js-scroll-button-response,98,1,2,48,50           50           55           55           65           55,blueredredblueblueblue,0  1  1  0  0  0,1,0
11696542,Button0Red,1,"{""Source1"": 0.50, ""Source2"": 0.55, ""Source3"": 0.65}",40,6,6,6,18427.0000000001,red,0,6,0,js-scroll-button-response,100,1,2,49,65           55           65           50           65           50,redblueredredredred,1  0  1  1  1  1,1,0
11696542,Button0Red,1,"{""Source1"": 0.50, ""Source2"": 0.55, ""Source3"": 0.65}",40,6,6,6,8816,blue,1,6,1,js-scroll-button-response,102,1,2,50,50           55           55           65           50           50,blueblueblueredredblue,0  0  0  1  1  0,1,0
11696542,Button0Red,1,"{""Source1"": 0.50, ""Source2"": 0.55, ""Source3"": 0.65}",40,6,6,6,9687.99999999988,red,0,6,0,js-scroll-button-response,104,1,2,51,55           65           55           55           50           65,redredblueblueredred,1  1  0  0  1  1,1,0
11696542,Button0Red,1,"{""Source1"": 0.50, ""Source2"": 0.55, ""Source3"": 0.65}",40,6,6,6,8045,blue,0,6,1,js-scroll-button-response,106,0,2,52,65           50           50           55           55           65,redredredredbluered,1  1  1  1  0  1,1,0
11696542,Button0Red,1,"{""Source1"": 0.50, ""Source2"": 0.55, ""Source3"": 0.65}",40,6,6,6,9613,red,1,6,0,js-scroll-button-response,108,0,2,53,55           50           55           55           50           65,redblueredredredblue,1  0  1  1  1  0,1,0
11696542,Button0Red,1,"{""Source1"": 0.50, ""Source2"": 0.55, ""Source3"": 0.65}",40,6,6,6,16068,blue,0,6,1,js-scroll-button-response,110,0,2,54,50           65           55           50           50           55,redredblueblueredred,1  1  0  0  1  1,1,0
11696542,Button0Red,1,"{""Source1"": 0.50, ""Source2"": 0.55, ""Source3"": 0.65}",40,6,6,6,17262,red,1,6,0,js-scroll-button-response,112,0,2,55,55           65           55           55           65           65,redblueredbluebluered,1  0  1  0  0  1,1,0
11696542,Button0Red,1,"{""Source1"": 0.50, ""Source2"": 0.55, ""Source3"": 0.65}",40,6,6,6,8570,blue,1,6,1,js-scroll-button-response,114,1,2,56,50           55           65           55           55           55,redredblueblueredblue,1  1  0  0  1  0,1,0
11696542,Button0Red,1,"{""Source1"": 0.50, ""Source2"": 0.55, ""Source3"": 0.65}",40,6,6,6,12438,blue,0,6,1,js-scroll-button-response,116,0,2,57,65           50           65           50           65           55,redredblueredredred,1  1  0  1  1  1,1,0
11696542,Button0Red,1,"{""Source1"": 0.50, ""Source2"": 0.55, ""Source3"": 0.65}",40,6,6,6,9318,red,0,6,0,js-scroll-button-response,118,1,2,58,65           65           65           55           55           50,redblueblueredredblue,1  0  0  1  1  0,1,0
11696542,Button0Red,1,"{""Source1"": 0.50, ""Source2"": 0.55, ""Source3"": 0.65}",40,6,6,6,18470,blue,1,6,1,js-scroll-button-response,120,1,2,59,65  50  65  65  50  65,blueredbluebluebluered,0  1  0  0  0  1,1,0
11696542,Button0Red,1,"{""Source1"": 0.50, ""Source2"": 0.55, ""Source3"": 0.65}",40,6,6,6,11360,red,0,6,0,js-scroll-button-response,122,1,2,60,55           65           50           55           55           50,blueredredredblueblue,0  1  1  1  0  0,1,0
11696542,Button0Red,1,"{""Source1"": 0.50, ""Source2"": 0.55, ""Source3"": 0.65}",40,6,6,6,11900.0000000002,blue,1,6,1,js-scroll-button-response,124,1,2,61,65           55           50           65           55           55,blueredredblueblueblue,0  1  1  0  0  0,1,0
11696542,Button0Red,1,"{""Source1"": 0.50, ""Source2"": 0.55, ""Source3"": 0.65}",40,6,6,6,9478,red,1,6,0,js-scroll-button-response,126,0,2,62,55           65           50           65           65           50,redblueblueredbluered,1  0  0  1  0  1,1,0
11696542,Button0Red,1,"{""Source1"": 0.50, ""Source2"": 0.55, ""Source3"": 0.65}",40,6,6,6,10910,red,0,6,0,js-scroll-button-response,128,1,2,63,50           55           65           55           65           65,redblueredredbluered,1  0  1  1  0  1,1,0
11696542,Button0Red,1,"{""Source1"": 0.50, ""Source2"": 0.55, ""Source3"": 0.65}",40,6,6,6,32151,blue,0,6,1,js-scroll-button-response,130,0,2,64,55           50           55           55           50           55,redblueredredredred,1  0  1  1  1  1,1,0
11696542,Button0Red,1,"{""Source1"": 0.50, ""Source2"": 0.55, ""Source3"": 0.65}",40,6,6,6,10157,red,0,6,0,js-scroll-button-response,132,1,2,65,50           50           65           55           65           50,redredredblueredred,1  1  1  0  1  1,1,0
11696542,Button0Red,1,"{""Source1"": 0.50, ""Source2"": 0.55, ""Source3"": 0.65}",40,6,6,6,8621.99999999977,blue,1,6,1,js-scroll-button-response,134,1,2,66,50           65           55           65           55           65,blueredblueblueblueblue,0  1  0  0  0  0,1,0
11696542,Button0Red,1,"{""Source1"": 0.50, ""Source2"": 0.55, ""Source3"": 0.65}",40,6,6,6,11839,blue,1,6,1,js-scroll-button-response,136,1,2,67,65           50           55           50           55           50,blueredredbluebluered,0  1  1  0  0  1,1,0
11696542,Button0Red,1,"{""Source1"": 0.50, ""Source2"": 0.55, ""Source3"": 0.65}",40,6,6,6,9843,blue,0,6,1,js-scroll-button-response,138,0,2,68,65           55           50           65           65           65,redredredblueredred,1  1  1  0  1  1,1,0
11696542,Button0Red,1,"{""Source1"": 0.50, ""Source2"": 0.55, ""Source3"": 0.65}",40,6,6,6,6859,blue,1,6,1,js-scroll-button-response,140,1,2,69,55           55           55           50           65           55,redredredredblueblue,1  1  1  1  0  0,1,0
11696542,Button0Red,1,"{""Source1"": 0.50, ""Source2"": 0.55, ""Source3"": 0.65}",40,6,6,6,8329.00000000023,blue,1,6,1,js-scroll-button-response,142,1,2,70,55           55           65           65           65           55,redredredbluebluered,1  1  1  0  0  1,1,0
11696542,Button0Red,1,"{""Source1"": 0.50, ""Source2"": 0.55, ""Source3"": 0.65}",40,6,6,6,8397,blue,1,6,1,js-scroll-button-response,144,1,2,71,65           65           65           65           55           55,blueblueredblueblueblue,0  0  1  0  0  0,1,0
11696542,Button0Red,1,"{""Source1"": 0.50, ""Source2"": 0.55, ""Source3"": 0.65}",40,6,6,6,7457,blue,0,6,1,js-scroll-button-response,146,0,2,72,55           65           50           50           55           65,blueredblueredredred,0  1  0  1  1  1,1,0
11696542,Button0Red,1,"{""Source1"": 0.50, ""Source2"": 0.55, ""Source3"": 0.65}",40,6,6,6,9836.99999999977,blue,1,6,1,js-scroll-button-response,148,1,2,73,50           55           65           50           50           55,blueblueblueredredred,0  0  0  1  1  1,1,0
11696542,Button0Red,1,"{""Source1"": 0.50, ""Source2"": 0.55, ""Source3"": 0.65}",40,6,6,6,7015.00000000023,red,0,6,0,js-scroll-button-response,150,1,2,74,50           50           50           65           55           50,redredblueredredred,1  1  0  1  1  1,1,0
11696542,Button0Red,1,"{""Source1"": 0.50, ""Source2"": 0.55, ""Source3"": 0.65}",40,6,6,6,11403.0000000002,blue,0,6,1,js-scroll-button-response,152,0,2,75,55           55           55           50           65           50,redblueredbluebluered,1  0  1  0  0  1,1,0
11696542,Button0Red,1,"{""Source1"": 0.50, ""Source2"": 0.55, ""Source3"": 0.65}",40,6,6,6,7729,blue,1,6,1,js-scroll-button-response,154,1,2,76,55           50           55           65           55           55,blueblueblueblueredblue,0  0  0  0  1  0,1,0
11696542,Button0Red,1,"{""Source1"": 0.50, ""Source2"": 0.55, ""Source3"": 0.65}",40,6,6,6,10534.9999999998,red,0,6,0,js-scroll-button-response,156,1,2,77,55           55           65           50           55           50,redblueredredredred,1  0  1  1  1  1,1,0
11696542,Button0Red,1,"{""Source1"": 0.50, ""Source2"": 0.55, ""Source3"": 0.65}",40,6,6,6,11102,blue,1,6,1,js-scroll-button-response,158,1,2,78,50           55           65           50           65           50,blueblueredredblueblue,0  0  1  1  0  0,1,0
11696542,Button0Red,1,"{""Source1"": 0.50, ""Source2"": 0.55, ""Source3"": 0.65}",40,6,6,6,40088,red,0,6,0,js-scroll-button-response,160,1,2,79,65  65  65  50  65  50,redredblueredredblue,1  1  0  1  1  0,1,0
11696542,Button0Red,1,"{""Source1"": 0.50, ""Source2"": 0.55, ""Source3"": 0.65}",40,6,6,6,6295,red,1,6,0,js-scroll-button-response,162,0,2,80,50           50           55           65           65           50,blueblueblueredbluered,0  0  0  1  0  1,1,0
11696542,Button0Red,1,"{""Source1"": 0.50, ""Source2"": 0.55, ""Source3"": 0.65}",40,6,6,6,6749,red,1,6,0,js-scroll-button-response,165,0,3,81,50           50           55           65           65           50,redblueredblueblueblue,1  0  1  0  0  0,1,0
11696542,Button0Red,1,"{""Source1"": 0.50, ""Source2"": 0.55, ""Source3"": 0.65}",40,6,6,6,12169.9999999998,red,0,6,0,js-scroll-button-response,167,1,3,82,50  65  50  65  50  65,blueredredredbluered,0  1  1  1  0  1,1,0
11696542,Button0Red,1,"{""Source1"": 0.50, ""Source2"": 0.55, ""Source3"": 0.65}",40,6,6,6,12499,red,1,6,0,js-scroll-button-response,169,0,3,83,65           55           55           50           50           55,blueblueblueblueredblue,0  0  0  0  1  0,1,0
11696542,Button0Red,1,"{""Source1"": 0.50, ""Source2"": 0.55, ""Source3"": 0.65}",40,6,6,6,7736,blue,0,6,1,js-scroll-button-response,171,0,3,84,50  50  65  50  65  50,redredblueredredred,1  1  0  1  1  1,1,0
11696542,Button0Red,1,"{""Source1"": 0.50, ""Source2"": 0.55, ""Source3"": 0.65}",40,6,6,6,10901,blue,1,6,1,js-scroll-button-response,173,1,3,85,65           65           50           65           65           55,redblueredredblueblue,1  0  1  1  0  0,1,0
11696542,Button0Red,1,"{""Source1"": 0.50, ""Source2"": 0.55, ""Source3"": 0.65}",40,6,6,6,10654,red,0,6,0,js-scroll-button-response,175,1,3,86,65           65           50           65           65           55,redredblueredredred,1  1  0  1  1  1,1,0
11696542,Button0Red,1,"{""Source1"": 0.50, ""Source2"": 0.55, ""Source3"": 0.65}",40,6,6,6,7130,red,0,6,0,js-scroll-button-response,177,1,3,87,50           65           65           55           55           65,redblueblueredredred,1  0  0  1  1  1,1,0
11696542,Button0Red,1,"{""Source1"": 0.50, ""Source2"": 0.55, ""Source3"": 0.65}",40,6,6,6,8352.99999999977,blue,1,6,1,js-scroll-button-response,179,1,3,88,50           55           55           65           65           55,blueredredbluebluered,0  1  1  0  0  1,1,0
11696542,Button0Red,1,"{""Source1"": 0.50, ""Source2"": 0.55, ""Source3"": 0.65}",40,6,6,6,7810.99999999977,blue,0,6,1,js-scroll-button-response,181,0,3,89,50           65           55           50           50           55,blueredblueblueredred,0  1  0  0  1  1,1,0
11696542,Button0Red,1,"{""Source1"": 0.50, ""Source2"": 0.55, ""Source3"": 0.65}",40,6,6,6,7302,blue,1,6,1,js-scroll-button-response,183,1,3,90,55           55           55           55           50           55,blueblueblueredredblue,0  0  0  1  1  0,1,0
11696542,Button0Red,1,"{""Source1"": 0.50, ""Source2"": 0.55, ""Source3"": 0.65}",40,6,6,6,8133,blue,1,6,1,js-scroll-button-response,185,1,3,91,65           65           50           55           50           50,blueredblueblueblueblue,0  1  0  0  0  0,1,0
11696542,Button0Red,1,"{""Source1"": 0.50, ""Source2"": 0.55, ""Source3"": 0.65}",40,6,6,6,7691,blue,1,6,1,js-scroll-button-response,187,1,3,92,65           65           65           55           50           50,redblueblueredredblue,1  0  0  1  1  0,1,0
11696542,Button0Red,1,"{""Source1"": 0.50, ""Source2"": 0.55, ""Source3"": 0.65}",40,6,6,6,7684,blue,1,6,1,js-scroll-button-response,189,1,3,93,65           65           55           50           55           65,bluebluebluebluebluered,0  0  0  0  0  1,1,0
11696542,Button0Red,1,"{""Source1"": 0.50, ""Source2"": 0.55, ""Source3"": 0.65}",40,6,6,6,7009,blue,1,6,1,js-scroll-button-response,191,1,3,94,65  50  65  65  65  50,blueblueblueredblueblue,0  0  0  1  0  0,1,0
11696542,Button0Red,1,"{""Source1"": 0.50, ""Source2"": 0.55, ""Source3"": 0.65}",40,6,6,6,7871.99999999977,blue,0,6,1,js-scroll-button-response,193,0,3,95,65           50           55           65           65           65,blueblueredredbluered,0  0  1  1  0  1,1,0
11696542,Button0Red,1,"{""Source1"": 0.50, ""Source2"": 0.55, ""Source3"": 0.65}",40,6,6,6,18757,red,1,6,0,js-scroll-button-response,195,0,3,96,50           55           55           50           55           55,redblueredredblueblue,1  0  1  1  0  0,1,0
11696542,Button0Red,1,"{""Source1"": 0.50, ""Source2"": 0.55, ""Source3"": 0.65}",40,6,6,6,7088,blue,0,6,1,js-scroll-button-response,197,0,3,97,50           65           65           50           50           55,blueblueredblueredred,0  0  1  0  1  1,1,0
11696542,Button0Red,1,"{""Source1"": 0.50, ""Source2"": 0.55, ""Source3"": 0.65}",40,6,6,6,8950,red,1,6,0,js-scroll-button-response,199,0,3,98,55           65           65           65           65           65,blueblueblueredredblue,0  0  0  1  1  0,1,0
11696542,Button0Red,1,"{""Source1"": 0.50, ""Source2"": 0.55, ""Source3"": 0.65}",40,6,6,6,8209.00000000023,blue,0,6,1,js-scroll-button-response,201,0,3,99,55           50           65           50           65           50,redredredbluebluered,1  1  1  0  0  1,1,0
11696542,Button0Red,1,"{""Source1"": 0.50, ""Source2"": 0.55, ""Source3"": 0.65}",40,6,6,6,6860.00000000023,blue,1,6,1,js-scroll-button-response,203,1,3,100,55           50           55           50           65           55,blueblueblueblueredblue,0  0  0  0  1  0,1,0
11696542,Button0Red,1,"{""Source1"": 0.50, ""Source2"": 0.55, ""Source3"": 0.65}",40,6,6,6,13962,blue,1,6,1,js-scroll-button-response,205,1,3,101,65           55           55           65           65           55,redblueredblueblueblue,1  0  1  0  0  0,1,0
11696542,Button0Red,1,"{""Source1"": 0.50, ""Source2"": 0.55, ""Source3"": 0.65}",40,6,6,6,9274,red,0,6,0,js-scroll-button-response,207,1,3,102,65           65           65           55           50           65,blueredredbluebluered,0  1  1  0  0  1,1,0
11696542,Button0Red,1,"{""Source1"": 0.50, ""Source2"": 0.55, ""Source3"": 0.65}",40,6,6,6,11301,red,1,6,0,js-scroll-button-response,209,0,3,103,50           50           50           55           55           65,redblueblueblueredblue,1  0  0  0  1  0,1,0
11696542,Button0Red,1,"{""Source1"": 0.50, ""Source2"": 0.55, ""Source3"": 0.65}",40,6,6,6,13159.9999999998,blue,1,6,1,js-scroll-button-response,211,1,3,104,50           55           65           50           55           65,blueblueblueredredblue,0  0  0  1  1  0,1,0
11696542,Button0Red,1,"{""Source1"": 0.50, ""Source2"": 0.55, ""Source3"": 0.65}",40,6,6,6,9087,red,0,6,0,js-scroll-button-response,213,1,3,105,65           55           55           50           65           65,redredredredredred,1  1  1  1  1  1,1,0
11696542,Button0Red,1,"{""Source1"": 0.50, ""Source2"": 0.55, ""Source3"": 0.65}",40,6,6,6,12603,blue,0,6,1,js-scroll-button-response,215,0,3,106,50           50           55           65           65           50,redblueredredblueblue,1  0  1  1  0  0,1,0
11696542,Button0Red,1,"{""Source1"": 0.50, ""Source2"": 0.55, ""Source3"": 0.65}",40,6,6,6,10230,blue,0,6,1,js-scroll-button-response,217,0,3,107,55           55           55           65           55           65,redredredblueredred,1  1  1  0  1  1,1,0
11696542,Button0Red,1,"{""Source1"": 0.50, ""Source2"": 0.55, ""Source3"": 0.65}",40,6,6,6,8164,red,0,6,0,js-scroll-button-response,219,1,3,108,55           65           65           65           55           50,redblueredredblueblue,1  0  1  1  0  0,1,0
11696542,Button0Red,1,"{""Source1"": 0.50, ""Source2"": 0.55, ""Source3"": 0.65}",40,6,6,6,11626,red,1,6,0,js-scroll-button-response,221,0,3,109,55           50           55           65           65           65,redbluebluebluebluered,1  0  0  0  0  1,1,0
11696542,Button0Red,1,"{""Source1"": 0.50, ""Source2"": 0.55, ""Source3"": 0.65}",40,6,6,6,9108.99999999977,blue,0,6,1,js-scroll-button-response,223,0,3,110,65  50  50  65  50  50,blueblueredredredred,0  0  1  1  1  1,1,0
11696542,Button0Red,1,"{""Source1"": 0.50, ""Source2"": 0.55, ""Source3"": 0.65}",40,6,6,6,8083,blue,0,6,1,js-scroll-button-response,225,0,3,111,55           55           65           65           55           50,redredblueredredred,1  1  0  1  1  1,1,0
11696542,Button0Red,1,"{""Source1"": 0.50, ""Source2"": 0.55, ""Source3"": 0.65}",40,6,6,6,8156,blue,1,6,1,js-scroll-button-response,227,1,3,112,55           65           65           55           65           55,blueblueblueredblueblue,0  0  0  1  0  0,1,0
11696542,Button0Red,1,"{""Source1"": 0.50, ""Source2"": 0.55, ""Source3"": 0.65}",40,6,6,6,9622,blue,0,6,1,js-scroll-button-response,229,0,3,113,55           50           55           65           55           50,redredredblueredblue,1  1  1  0  1  0,1,0
11696542,Button0Red,1,"{""Source1"": 0.50, ""Source2"": 0.55, ""Source3"": 0.65}",40,6,6,6,7930,blue,1,6,1,js-scroll-button-response,231,1,3,114,50           50           65           55           65           65,redblueblueredbluered,1  0  0  1  0  1,1,0
11696542,Button0Red,1,"{""Source1"": 0.50, ""Source2"": 0.55, ""Source3"": 0.65}",40,6,6,6,7737.00000000023,blue,1,6,1,js-scroll-button-response,233,1,3,115,50           50           55           55           55           65,redredredredblueblue,1  1  1  1  0  0,1,0
11696542,Button0Red,1,"{""Source1"": 0.50, ""Source2"": 0.55, ""Source3"": 0.65}",40,6,6,6,8209.00000000023,blue,1,6,1,js-scroll-button-response,235,1,3,116,50           50           50           50           50           55,blueredredblueredblue,0  1  1  0  1  0,1,0
11696542,Button0Red,1,"{""Source1"": 0.50, ""Source2"": 0.55, ""Source3"": 0.65}",40,6,6,6,11882,blue,1,6,1,js-scroll-button-response,237,1,3,117,55           55           65           55           65           55,blueblueblueredredblue,0  0  0  1  1  0,1,0
11696542,Button0Red,1,"{""Source1"": 0.50, ""Source2"": 0.55, ""Source3"": 0.65}",40,6,6,6,13300.9999999998,blue,1,6,1,js-scroll-button-response,239,1,3,118,55           65           65           55           55           50,blueredbluebluebluered,0  1  0  0  0  1,1,0
11696542,Button0Red,1,"{""Source1"": 0.50, ""Source2"": 0.55, ""Source3"": 0.65}",40,6,6,6,7271,red,1,6,0,js-scroll-button-response,241,0,3,119,50           55           65           55           65           65,redblueblueblueredblue,1  0  0  0  1  0,1,0
11696542,Button0Red,1,"{""Source1"": 0.50, ""Source2"": 0.55, ""Source3"": 0.65}",40,6,6,6,7933,red,1,6,0,js-scroll-button-response,243,0,3,120,65           50           65           50           55           50,blueblueredblueredred,0  0  1  0  1  1,1,0
11696542,Button0Red,1,"{""Source1"": 0.50, ""Source2"": 0.55, ""Source3"": 0.65}",40,6,6,6,12390.0000000002,blue,1,6,1,js-scroll-button-response,246,1,4,121,65  65  65  65  50  50,blueblueblueblueredblue,0  0  0  0  1  0,1,0
11696542,Button0Red,1,"{""Source1"": 0.50, ""Source2"": 0.55, ""Source3"": 0.65}",40,6,6,6,6595.99999999977,blue,1,6,1,js-scroll-button-response,248,1,4,122,65           65           55           55           50           55,blueredblueblueredred,0  1  0  0  1  1,1,0
11696542,Button0Red,1,"{""Source1"": 0.50, ""Source2"": 0.55, ""Source3"": 0.65}",40,6,6,6,6544,blue,0,6,1,js-scroll-button-response,250,0,4,123,55           50           50           65           50           65,redblueredredbluered,1  0  1  1  0  1,1,0
11696542,Button0Red,1,"{""Source1"": 0.50, ""Source2"": 0.55, ""Source3"": 0.65}",40,6,6,6,7271,blue,1,6,1,js-scroll-button-response,252,1,4,124,50  65  50  50  50  65,redblueredblueredblue,1  0  1  0  1  0,1,0
11696542,Button0Red,1,"{""Source1"": 0.50, ""Source2"": 0.55, ""Source3"": 0.65}",40,6,6,6,6820,blue,1,6,1,js-scroll-button-response,254,1,4,125,50           55           65           55           65           55,blueblueredredbluered,0  0  1  1  0  1,1,0
11696542,Button0Red,1,"{""Source1"": 0.50, ""Source2"": 0.55, ""Source3"": 0.65}",40,6,6,6,9799.00000000047,red,0,6,0,js-scroll-button-response,256,1,4,126,50           50           55           65           55           50,redblueredblueredblue,1  0  1  0  1  0,1,0
11696542,Button0Red,1,"{""Source1"": 0.50, ""Source2"": 0.55, ""Source3"": 0.65}",40,6,6,6,6378.00000000047,blue,1,6,1,js-scroll-button-response,258,1,4,127,65           50           55           55           65           50,blueredblueblueblueblue,0  1  0  0  0  0,1,0
11696542,Button0Red,1,"{""Source1"": 0.50, ""Source2"": 0.55, ""Source3"": 0.65}",40,6,6,6,8046,red,0,6,0,js-scroll-button-response,260,1,4,128,55           55           55           55           55           50,redredblueredredblue,1  1  0  1  1  0,1,0
11696542,Button0Red,1,"{""Source1"": 0.50, ""Source2"": 0.55, ""Source3"": 0.65}",40,6,6,6,8486,red,0,6,0,js-scroll-button-response,262,1,4,129,55           55           50           50           55           50,blueredredredblueblue,0  1  1  1  0  0,1,0
11696542,Button0Red,1,"{""Source1"": 0.50, ""Source2"": 0.55, ""Source3"": 0.65}",40,6,6,6,6941,blue,1,6,1,js-scroll-button-response,264,1,4,130,50           50           55           65           65           50,redredredbluebluered,1  1  1  0  0  1,1,0
11696542,Button0Red,1,"{""Source1"": 0.50, ""Source2"": 0.55, ""Source3"": 0.65}",40,6,6,6,6731,red,0,6,0,js-scroll-button-response,266,1,4,131,55           50           55           65           50           50,blueblueredredredred,0  0  1  1  1  1,1,0
11696542,Button0Red,1,"{""Source1"": 0.50, ""Source2"": 0.55, ""Source3"": 0.65}",40,6,6,6,6499,red,0,6,0,js-scroll-button-response,268,1,4,132,65           55           50           65           55           50,redredredredredblue,1  1  1  1  1  0,1,0
11696542,Button0Red,1,"{""Source1"": 0.50, ""Source2"": 0.55, ""Source3"": 0.65}",40,6,6,6,6897,blue,1,6,1,js-scroll-button-response,270,1,4,133,55           65           55           55           50           65,blueblueblueredbluered,0  0  0  1  0  1,1,0
11696542,Button0Red,1,"{""Source1"": 0.50, ""Source2"": 0.55, ""Source3"": 0.65}",40,6,6,6,7895,blue,1,6,1,js-scroll-button-response,272,1,4,134,65           55           65           50           55           50,blueblueredblueredblue,0  0  1  0  1  0,1,0
11696542,Button0Red,1,"{""Source1"": 0.50, ""Source2"": 0.55, ""Source3"": 0.65}",40,6,6,6,11727,red,0,6,0,js-scroll-button-response,274,1,4,135,55           65           65           50           50           50,redredblueblueblueblue,1  1  0  0  0  0,1,0
11696542,Button0Red,1,"{""Source1"": 0.50, ""Source2"": 0.55, ""Source3"": 0.65}",40,6,6,6,8913,blue,1,6,1,js-scroll-button-response,276,1,4,136,65           55           65           50           55           65,redredblueblueredblue,1  1  0  0  1  0,1,0
11696542,Button0Red,1,"{""Source1"": 0.50, ""Source2"": 0.55, ""Source3"": 0.65}",40,6,6,6,6265,blue,1,6,1,js-scroll-button-response,278,1,4,137,65           50           55           65           65           65,blueblueredblueblueblue,0  0  1  0  0  0,1,0
11696542,Button0Red,1,"{""Source1"": 0.50, ""Source2"": 0.55, ""Source3"": 0.65}",40,6,6,6,17592,blue,1,6,1,js-scroll-button-response,280,1,4,138,65           65           55           65           65           50,redredbluebluebluered,1  1  0  0  0  1,1,0
11696542,Button0Red,1,"{""Source1"": 0.50, ""Source2"": 0.55, ""Source3"": 0.65}",40,6,6,6,6573,blue,0,6,1,js-scroll-button-response,282,0,4,139,55           50           55           65           65           50,redredblueredblueblue,1  1  0  1  0  0,1,0
11696542,Button0Red,1,"{""Source1"": 0.50, ""Source2"": 0.55, ""Source3"": 0.65}",40,6,6,6,8193,red,0,6,0,js-scroll-button-response,284,1,4,140,50           50           50           55           55           65,redblueredblueredred,1  0  1  0  1  1,1,0
11696542,Button0Red,1,"{""Source1"": 0.50, ""Source2"": 0.55, ""Source3"": 0.65}",40,6,6,6,8502,blue,1,6,1,js-scroll-button-response,286,1,4,141,65           65           55           65           65           50,blueredredblueblueblue,0  1  1  0  0  0,1,0
11696542,Button0Red,1,"{""Source1"": 0.50, ""Source2"": 0.55, ""Source3"": 0.65}",40,6,6,6,16866,red,0,6,0,js-scroll-button-response,288,1,4,142,65           50           55           50           50           55,redblueredblueredblue,1  0  1  0  1  0,1,0
11696542,Button0Red,1,"{""Source1"": 0.50, ""Source2"": 0.55, ""Source3"": 0.65}",40,6,6,6,7677,blue,1,6,1,js-scroll-button-response,290,1,4,143,55           65           65           65           50           65,blueblueblueblueblueblue,0  0  0  0  0  0,1,0
11696542,Button0Red,1,"{""Source1"": 0.50, ""Source2"": 0.55, ""Source3"": 0.65}",40,6,6,6,7985,red,1,6,0,js-scroll-button-response,292,0,4,144,55           55           50           50           50           50,blueblueredredblueblue,0  0  1  1  0  0,1,0
